// Start Time: Unknown
// Update Rate: 100.0Hz
// Filter Profile: human (46.1)
// Option Flags: AHS Disabled ICC Disabled 
// Firmware Version: 4.0.2
PacketCounter	SampleTimeFine	Acc_X	Acc_Y	Acc_Z	Mat[1][1]	Mat[2][1]	Mat[3][1]	Mat[1][2]	Mat[2][2]	Mat[3][2]	Mat[1][3]	Mat[2][3]	Mat[3][3]
1	9.141516	-0.595761108398438	0.54845947265625	9.15196838378906	0.898096400514084	0.437437696230094	0.0455095297773512	-0.43300634498248	0.897595300369488	-0.0826328140602898	-0.0769958478657185	0.0545063177211336	0.995540406382344
2	9.141516	-0.667611694335938	0.398171997070313	9.31003967285156	0.897364032757164	0.438195561942703	0.0521770275841597	-0.433395879005817	0.897392864353642	-0.0827892448808542	-0.083101171920586	0.0516787819214561	0.995200230468492
3	9.141516	-0.677191772460938	0.640068969726563	8.94659545898438	0.897018104419143	0.438615704710265	0.0545415797883127	-0.43363684993395	0.897214169645727	-0.0834614651578223	-0.0855429875772866	0.051215206418089	0.995017286235724
4	9.141516	-0.394579467773437	0.517922973632812	9.14178955078125	0.897204132767846	0.438197621430359	0.054841487188752	-0.433188343352913	0.897414720120198	-0.083634199313119	-0.0858638650857106	0.0512802562821546	0.994986297387145
5	9.141516	-0.605341186523437	0.528101806640625	8.8759423828125	0.89708883160648	0.43831456568125	0.0557850313128588	-0.433200856575871	0.897348647278498	-0.0842758748953814	-0.0869979658891589	0.0514368227936694	0.994879694833522
6	9.141516	-0.732277221679688	0.367036743164063	9.16394348144531	0.896919974957364	0.43858506205454	0.0563711084253136	-0.433410187747918	0.897214405787937	-0.084628123002438	-0.0876936011280085	0.051472841277862	0.994816756459192
7	9.141516	-0.399369506835938	0.647254028320313	8.98371826171875	0.89697639027669	0.438606684208019	0.0552949532439057	-0.433437767283642	0.897146880284356	-0.0852008045045272	-0.0869773371538257	0.0524561889970489	0.994828272144261
8	9.141516	-0.517922973632812	0.515527954101562	9.10706176757813	0.896955717264875	0.438689720663918	0.0549706307919761	-0.433505934987133	0.897079014269517	-0.0855677888469934	-0.0868507086717562	0.0529204227217163	0.994814748213037
9	9.141516	-0.549656982421875	0.585582275390625	9.00647094726563	0.897045738606352	0.438531285257509	0.0547654516879291	-0.433281722456898	0.897103122296643	-0.0864461505817251	-0.0870395992233952	0.0538172817597836	0.994750123574267
10	9.141516	-0.5125341796875	0.600551147460938	9.05916137695313	0.897077818006774	0.438598419167429	0.053691853609631	-0.433350358490218	0.897006543942901	-0.0871018192692542	-0.0863646642823652	0.054869725964745	0.994751455357543
11	9.141516	-0.534688110351562	0.424517211914062	9.10047546386719	0.896926134563409	0.438860554915113	0.0540825524244223	-0.43360092205691	0.896896535389839	-0.0869876151937735	-0.0866818869691855	0.0545712208522199	0.994740283856123
12	9.141516	-0.453856201171875	0.789158935546875	8.78373413085938	0.897093017907301	0.438619506657918	0.0532639240118111	-0.433302815708081	0.896925499701355	-0.08816642152727	-0.0864452839744339	0.0560140729160068	0.994680670624468
13	9.141516	-0.537083129882812	0.429906005859375	9.18968994140625	0.897061498264455	0.438708620907005	0.053060477508266	-0.433410638622949	0.896881633442273	-0.0880826539244195	-0.0862315873678517	0.056018582058053	0.994698965418295
14	9.141516	-0.459244995117188	0.578397216796875	9.17651733398437	0.897177241115446	0.438520132611598	0.0526601492476504	-0.433219262820388	0.896945042268801	-0.0883779467445314	-0.0859887687191678	0.0564772913986277	0.994694047036795
15	9.141516	-0.51732421875	0.519120483398438	8.96395935058594	0.897096699594861	0.438662511258256	0.05284612372359	-0.433302134371298	0.896849261836884	-0.0889419017781564	-0.0864104850425335	0.0568911483381931	0.994633915224831
16	9.141516	-0.543070678710938	0.5508544921875	9.02203857421875	0.897167806747457	0.438502452411582	0.0529672140572462	-0.433086867765723	0.89689803943399	-0.0894967699324494	-0.0867507435405187	0.0573542159609481	0.994577700537607
17	9.141516	-0.386795654296875	0.46223876953125	9.32919982910156	0.897350617765357	0.438190166695829	0.0524523269952179	-0.432793137169461	0.897026817594536	-0.0896269431322668	-0.0863247891115138	0.0577257856360614	0.994593265841646
18	9.141516	-0.666414184570313	0.35685791015625	9.12682067871094	0.8974571624891	0.437922373299048	0.0528643212492362	-0.432474117545329	0.8971491763325	-0.0899416091656497	-0.0868146252102857	0.0578562906696114	0.994543046066661
19	9.141516	-0.316741333007813	0.461041259765625	9.28070068359375	0.897748858554857	0.437428325542855	0.0519946821917946	-0.432019196709997	0.897354624515685	-0.0900782522830155	-0.0860604475790166	0.0584049473340029	0.994576523697102
20	9.141516	-0.611927490234375	0.635278930664062	9.09269165039063	0.89776588149512	0.437388669993695	0.0520343481215671	-0.431924751603783	0.897339122506726	-0.0906835606428767	-0.0863564182634969	0.0589376838703957	0.994519440958644
21	9.141516	-0.536484375	0.292791137695313	9.35075500488281	0.89786110891012	0.437194771206314	0.0520207760087169	-0.431763654690798	0.897453745879617	-0.0903156713682085	-0.086171779572756	0.0586302484772467	0.994553627698759
22	9.141516	-0.373024291992188	0.693358154296875	8.74960510253906	0.898037552318188	0.436919948035064	0.0512787834820056	-0.431477268476489	0.897526317266489	-0.0909608520305367	-0.0857666684349173	0.059560631486667	0.994533362820215
23	9.141516	-0.620908813476563	0.45744873046875	9.18130737304688	0.89793323959281	0.437116030447623	0.0514341633554429	-0.431651744847302	0.897428096486853	-0.0911020461145854	-0.0859806280777328	0.0596019090440651	0.994512415223491
24	9.141516	-0.360450439453125	0.67300048828125	9.14777709960938	0.898089636714558	0.436897271785087	0.0505547063354364	-0.43144484684498	0.897478774175546	-0.0915816249870682	-0.0853835379732271	0.0604369407821797	0.994513462770649
25	9.141516	-0.680784301757813	0.58677978515625	9.08790161132812	0.898013935885722	0.437054458649759	0.0505407867904894	-0.431574919970612	0.897383094242374	-0.0919057703321305	-0.0855222743347919	0.0607205265322084	0.994484267472471
26	9.141516	-0.353864135742188	0.618513793945313	9.15256713867188	0.898192960405639	0.43678189975048	0.049708932075791	-0.431406425545091	0.897527617973715	-0.0912834649475846	-0.0844861046336143	0.0605454129128747	0.994583506347781
27	9.141516	-0.535885620117188	0.669407958984375	8.8376220703125	0.898410937419712	0.436406367331064	0.0490639386672149	-0.431059199065594	0.897680780179661	-0.0914176339497162	-0.0839389922834691	0.0609811401085634	0.994603210393721
28	9.141516	-0.27542724609375	0.517922973632812	9.00407592773437	0.898626331124317	0.435990508597342	0.0488159136253821	-0.430669696162624	0.897880776368251	-0.0912892339519838	-0.0836321099652707	0.0610113746884764	0.99462720772226
29	9.141516	-0.526305541992187	0.429307250976563	9.10646301269531	0.898699113342443	0.435877843243572	0.0484810215119197	-0.430552713278761	0.89790655568808	-0.0915869987534556	-0.0834521705278155	0.0614355192189429	0.994616213527859
30	9.141516	-0.511935424804688	0.420924682617188	9.05437133789063	0.898765551578917	0.435723880129933	0.0486331530908771	-0.430405171301078	0.897996298696821	-0.0914004159952252	-0.083497735372493	0.0612155847095006	0.994625949981368
31	9.141516	-0.252075805664063	0.664617919921875	8.99269958496094	0.898797341570815	0.435773120225336	0.0475933448531607	-0.430459009630681	0.897897350659317	-0.0921161696270171	-0.0828756889142398	0.0623067842859461	0.994610217531941
32	9.141516	-0.370629272460938	0.521515502929688	8.96096557617188	0.898730947670384	0.435925349730092	0.0474528519921757	-0.430579248141073	0.897789526784367	-0.0926038696090573	-0.0829710477803122	0.062793750158752	0.994571641547876
33	9.141516	-0.477207641601563	0.595162353515625	8.93521911621094	0.898790745747054	0.435807671404365	0.0474011487683586	-0.430412389716502	0.897804388487879	-0.0932333351888465	-0.0831887620895131	0.0633952171461717	0.994515297169935
34	9.141516	-0.609532470703125	0.477806396484375	9.2208251953125	0.89867543924158	0.436036062556185	0.0474869145602525	-0.430623292628161	0.897688634555926	-0.0933739537301454	-0.083342874620663	0.0634639073774732	0.994498012924284
35	9.141516	-0.501157836914063	0.51971923828125	9.0388037109375	0.898550867927802	0.436305055839429	0.0473733679945327	-0.430904064496718	0.897559901707503	-0.0933161832000472	-0.0832347580425452	0.0634359605883693	0.994508850618148
36	9.141516	-0.392184448242188	0.839454345703125	8.5310595703125	0.89854406111886	0.436289945877048	0.0476408790287288	-0.430777904590408	0.8975036286313	-0.0944332224926644	-0.0839581273297886	0.0643297732022586	0.994390624018058
37	9.141516	-0.37601806640625	0.569415893554688	9.38787780761719	0.898809459904597	0.435742491646464	0.0476448922733479	-0.430209043661915	0.897749278256549	-0.094691140775397	-0.0840341212693266	0.0646120295577927	0.994365904533596
38	9.141516	-0.859213256835938	0.637673950195312	9.01425476074219	0.898977927853117	0.43536081283667	0.0479546439785471	-0.429768036458765	0.897911046183038	-0.0951587514675298	-0.0844873959315389	0.0649362440296304	0.99430637337796
39	9.141516	-0.29458740234375	0.528700561523437	8.9717431640625	0.899031493927991	0.435251513869398	0.0479425969259273	-0.429662747459258	0.89796529262014	-0.0951223249052913	-0.0844529239953646	0.0649188179499821	0.994310439804697
40	9.141516	-0.532891845703125	0.574205932617188	9.04179748535156	0.899138453458536	0.435062577348268	0.0476507639317054	-0.429450806317689	0.898013698495278	-0.0956211392314388	-0.0843922180374435	0.0655129842543745	0.99427662269049
41	9.141516	-0.844244384765625	0.35206787109375	9.29566955566406	0.899001957138144	0.435287232124074	0.0481716370030033	-0.429600313517673	0.897891403302164	-0.0960968183739055	-0.0850826168338963	0.0656966774337401	0.994205660256902
42	9.141516	-0.494571533203125	0.62031005859375	9.27112060546875	0.898906677028018	0.43551746975343	0.047867729568219	-0.42983410677452	0.897759134109112	-0.0962869553834195	-0.0849083426277817	0.0659778043225749	0.994201942609737
43	9.141516	-0.360450439453125	0.628093872070313	9.13999328613281	0.899046481490701	0.435228628677873	0.0478692479402838	-0.429541692623809	0.897894254144908	-0.0963319400377286	-0.0849079408363185	0.0660450539611948	0.99419751178033
44	9.141516	-0.480800170898438	0.590971069335938	8.92444152832031	0.899234180075052	0.434848321257392	0.0477998628070959	-0.429143484869931	0.898055710843492	-0.0966012919948933	-0.0849338494267224	0.0663541838998768	0.994174714776301
45	9.141516	-0.501756591796875	0.528700561523437	9.10227172851562	0.899357856672234	0.434620947382807	0.0475402749045195	-0.428916903604441	0.898142689472502	-0.0967987559294028	-0.0847687173685213	0.066665894152656	0.994167955182887
46	9.141516	-0.611328735351563	0.37601806640625	9.2016650390625	0.899352995745279	0.434639576455182	0.0474618543975259	-0.428942679984404	0.898132807740087	-0.0967762209879297	-0.0846898242517279	0.0666775692400974	0.994173895970138
47	9.141516	-0.510737915039063	0.544866943359375	8.95018798828125	0.899300939968996	0.434749239124435	0.0474438452447273	-0.429025174233032	0.898057665266196	-0.0971073103887928	-0.0848246381966785	0.0669740915380983	0.994142470583291
48	9.141516	-0.307760009765625	0.688568115234375	9.16274597167969	0.899354980047058	0.434671877376251	0.0471272626274975	-0.428949609164353	0.898068781378405	-0.0973380537675562	-0.0846336378888708	0.0673262425188891	0.99413496287274
49	9.141516	-0.576600952148438	0.51013916015625	9.10227172851562	0.899519004756733	0.434332657776506	0.0471243299183477	-0.428598857126445	0.898220667768113	-0.0974815452488881	-0.0846674657194934	0.0674890686185749	0.994121041858403
50	9.141516	-0.566422119140625	0.458047485351563	9.18849243164063	0.899623859314322	0.434103376212544	0.0472352676850265	-0.428361868542908	0.898333052741742	-0.0974876193684694	-0.0847527069233391	0.0674684008449457	0.994115181232332
51	9.141516	-0.587977294921875	0.3592529296875	9.19867126464844	0.899675614053237	0.433998471509231	0.0472135171914138	-0.428265517213487	0.898387810458368	-0.0974063077304743	-0.0846902370040163	0.0674141583606243	0.994124184902839
52	9.141516	-0.568218383789063	0.67060546875	8.75798767089844	0.899644003038128	0.434103271840469	0.0468510103939535	-0.428343284146812	0.898284893206484	-0.0980116399380247	-0.0846327284438948	0.0681072684404337	0.99408183831198
53	9.141516	-0.49097900390625	0.39038818359375	9.21004760742188	0.899706053681405	0.433971049776966	0.0468843782566367	-0.428212545435	0.89835179246407	-0.0979697550709906	-0.0846347026999631	0.068067502760643	0.994084393885559
54	9.141516	-0.475411376953125	0.702339477539063	9.00587219238281	0.899886041287407	0.433616833216782	0.0467071155942032	-0.427807219009429	0.898462873803319	-0.0987190344386604	-0.0847708443953419	0.0688542398704133	0.994018610284722
55	9.141516	-0.655636596679688	0.506546630859375	9.14238830566406	0.900007417864047	0.433384989243716	0.0465198762672011	-0.427582383368029	0.898561735551619	-0.0987932833535686	-0.0846165067998405	0.0690236082850407	0.994020014022005
56	9.141516	-0.444874877929687	0.450862426757813	9.14777709960938	0.900202214208342	0.432979365635333	0.0465278676539546	-0.427206725367342	0.898778942303077	-0.0984419964927344	-0.0844416208709387	0.0687406852350783	0.994054490889761
57	9.141516	-0.51732421875	0.47900390625	8.89210876464844	0.900273578657746	0.432844629166815	0.0464005449560403	-0.427037933239158	0.898803477290482	-0.0989490413564822	-0.0845345322670207	0.0692664147475555	0.994010098863395
58	9.141516	-0.594563598632812	0.659229125976563	9.04658752441406	0.900392574005039	0.432599458239641	0.0463780272041592	-0.426766260583371	0.898895606852851	-0.099283668386758	-0.0846390660644764	0.0696017004922629	0.993977782339383
59	9.141516	-0.588576049804688	0.58198974609375	9.02323608398438	0.900328778152712	0.432734314343242	0.0463584341833266	-0.426861919934086	0.898797787558995	-0.0997568964495283	-0.0848350902647697	0.0700253544720776	0.993931314121267
60	9.141516	-0.447269897460938	0.671204223632813	9.18130737304688	0.900501635088982	0.432444734568926	0.0456985420520255	-0.426601248893017	0.898897814243471	-0.0999704655947331	-0.0843100210235254	0.0705285126166798	0.993940415348471
61	9.141516	-0.507744140625	0.586181030273437	9.14538208007813	0.900593047220337	0.432257337523046	0.0456700936705489	-0.426400038630919	0.89897206827658	-0.100161007952597	-0.0843514691866129	0.0707305776592904	0.993922539753498
62	9.141516	-0.489781494140625	0.598156127929688	8.87055358886719	0.900819106884143	0.431813974026364	0.0454051594867055	-0.425961306284407	0.899160258700371	-0.100338401035514	-0.0841540386489942	0.0710459077599861	0.993916785636314
63	9.141516	-0.425115966796875	0.640667724609375	8.89809631347656	0.900847233075098	0.431783449418636	0.0451366311224661	-0.42592438146735	0.899143845465534	-0.100641772803883	-0.0840397758956809	0.0714380708697945	0.9938983439456
64	9.141516	-0.726289672851563	0.402962036132813	9.05856262207031	0.900849019574993	0.431749195613756	0.0454277009945376	-0.425842162938337	0.899146913147518	-0.100961779111149	-0.0844363440395994	0.071606289277996	0.993852626469872
65	9.141516	-0.5029541015625	0.46223876953125	9.20705383300781	0.901000222589937	0.431418589609107	0.0455697205671985	-0.425517540286201	0.899321127682282	-0.100778629743862	-0.0844595867954949	0.0714108524242448	0.993864713305779
66	9.141516	-0.56761962890625	0.638871459960938	8.90528137207031	0.901133249591733	0.43114449908744	0.0455333656441486	-0.425208787886458	0.899417251485726	-0.101222993603188	-0.0845952314517324	0.0718542179451048	0.993821220431082
67	9.141516	-0.602946166992188	0.492176513671875	9.17232604980469	0.901123932868271	0.431157722959305	0.045592494388529	-0.425208689757304	0.89940536257712	-0.101328988559036	-0.0846949099231936	0.0719236518821688	0.993807708026576
68	9.141516	-0.418529663085938	0.671802978515625	9.09209289550781	0.901275851354289	0.430886020670346	0.0451561397428464	-0.424951841764705	0.899503842354244	-0.101532112017515	-0.0843668889220585	0.0723192559476783	0.993806899388803
69	9.141516	-0.59635986328125	0.567020874023437	9.0004833984375	0.901237474815486	0.430944102675357	0.0453673269825096	-0.424964259654369	0.899457849461682	-0.101886971974735	-0.0847135880754745	0.0725448648154864	0.993760962497663
70	9.141516	-0.395776977539063	0.496367797851563	9.11724060058594	0.901527294956601	0.430384098446446	0.044922870040495	-0.424445486331271	0.899713021746023	-0.101796402852219	-0.084229244216281	0.0727049262779388	0.993790434706269
71	9.141516	-0.763412475585938	0.447269897460938	8.93521911621094	0.90154546504919	0.430325203755849	0.0451219842396945	-0.424337540955677	0.899717751147601	-0.102203814046217	-0.0845779272915184	0.0729944332287844	0.993739597144383
72	9.141516	-0.528700561523437	0.48618896484375	9.1729248046875	0.901454925289008	0.430538403181887	0.0448965595316799	-0.424551307824202	0.899596113698098	-0.10238661652794	-0.0844701408602498	0.0732360266868062	0.993730989603414
73	9.141516	-0.590971069335938	0.661624145507813	9.05676635742187	0.901521256913797	0.430418431587807	0.0447146182143987	-0.424410438991517	0.89961620461375	-0.102793305576667	-0.0844701284928257	0.0736929993000903	0.99369720702363
74	9.141516	-0.386196899414063	0.51971923828125	9.1825048828125	0.901518291042983	0.430478937800231	0.0441888563477725	-0.424533477874084	0.899590161795183	-0.102512764890292	-0.0838814465723745	0.0736574837453891	0.993749705916547
75	9.141516	-0.588576049804688	0.45744873046875	9.04239624023437	0.90162414675673	0.430240606279531	0.0443499570847718	-0.424262678347056	0.899689499924682	-0.102761780283623	-0.0841134813628693	0.0738364708900619	0.993716809669395
76	9.141516	-0.57719970703125	0.562230834960938	8.91725646972656	0.901677456348398	0.430119217185147	0.0444434890745569	-0.424094264719222	0.899714442294686	-0.103237478459254	-0.0843908724054076	0.0742386781563316	0.993663322921932
77	9.141516	-0.561632080078125	0.458646240234375	9.14957336425781	0.901766364863203	0.429962574500841	0.0441543625252886	-0.423974116919015	0.899790816849029	-0.103065193430651	-0.0840438658329472	0.0742204179640992	0.993694096879461
78	9.141516	-0.618513793945313	0.587977294921875	9.07413024902344	0.901737967308297	0.430033172915548	0.0440466628348513	-0.424013416478234	0.899719130475152	-0.103528300012568	-0.0841502285270621	0.0746790228191468	0.993650734709949
79	9.141516	-0.426912231445313	0.474812622070313	9.19867126464844	0.901720466926248	0.430077203037678	0.043974980995977	-0.424060103571929	0.899693563145416	-0.103559263193933	-0.0841024856046119	0.0747334721660437	0.993650683114108
80	9.141516	-0.430504760742188	0.628093872070313	9.0388037109375	0.901837654957599	0.429842399549335	0.0438674782754803	-0.423818015378002	0.899785990026302	-0.103747105952114	-0.0840662473388162	0.0749712191581406	0.993635839911339
81	9.141516	-0.662821655273438	0.410147094726563	9.05077880859375	0.901842422333019	0.429837616046291	0.0438163110285866	-0.423783389641527	0.89975629704308	-0.104145305200303	-0.0841895714708805	0.0753540295071708	0.993596440358249
82	9.141516	-0.530496826171875	0.604143676757813	8.94958923339844	0.901927611579528	0.429666621890345	0.0437398845881741	-0.423585925759471	0.899804594594619	-0.104530641655478	-0.0842706768036169	0.0757514724593069	0.993559342692377
83	9.141516	-0.513731689453125	0.621507568359375	9.13101196289062	0.901939624383143	0.429653867542548	0.0436172909902191	-0.423576958682533	0.899801174362663	-0.104596399024193	-0.0841871370272851	0.0758643573841015	0.993557811724032
84	9.141516	-0.456849975585938	0.488583984375	9.14957336425781	0.902113171409235	0.429289771355588	0.0436132798519127	-0.423216376285833	0.899974045300552	-0.104568717257353	-0.0841411006195072	0.07587496289836	0.993560901601765
85	9.141516	-0.571212158203125	0.595162353515625	8.9525830078125	0.902198883999335	0.429115768708336	0.0435526205435276	-0.423027323341534	0.90003533070239	-0.104805950183831	-0.0841727831121918	0.0761318627993041	0.993538565960001
86	9.141516	-0.458047485351563	0.48618896484375	9.09927795410156	0.902288351766253	0.428917568788215	0.0436514541767512	-0.422825471860167	0.900134882365332	-0.104765518637462	-0.0842279681172822	0.0760717604236645	0.993538492788718
87	9.141516	-0.581390991210938	0.672401733398438	8.92623779296875	0.902333663879801	0.428851318886097	0.0433647935416469	-0.422715466611824	0.90009573302649	-0.105542909163303	-0.0842946814241689	0.0769039509853732	0.993468765994401
88	9.141516	-0.606538696289063	0.568218383789063	9.06514892578125	0.902417368634163	0.428669818258649	0.0434175045516323	-0.422504614549362	0.900159160369582	-0.105845815633992	-0.0844555709938015	0.077173006400081	0.993434237184971
89	9.141516	-0.521515502929688	0.496367797851563	9.24238037109375	0.902710074648183	0.42807947393118	0.0431565189453087	-0.421935474089525	0.900425345956298	-0.105852029098782	-0.0841723044327536	0.0773444268081806	0.993444947044472
90	9.141516	-0.728684692382813	0.396375732421875	9.12262939453125	0.902631388928009	0.42825532940345	0.0430575029401086	-0.422094812704887	0.90031764220263	-0.106132522001145	-0.0842172476961907	0.0776241971052807	0.993419316912169
91	9.141516	-0.793350219726562	0.746647338867188	8.59572509765625	0.903203030305556	0.427065820995553	0.0428843862525192	-0.420675684364082	0.900636296925908	-0.10902398472079	-0.0851836523734	0.0804303748404921	0.993113639102468
92	9.141516	-0.522713012695313	0.559237060546875	9.17112854003906	0.904413301302713	0.424502350913882	0.0428291313864121	-0.417751580781547	0.901465062319612	-0.11333295271728	-0.0867190704588439	0.084607892573245	0.992633521161294
93	9.141516	-0.4167333984375	0.671204223632813	9.55552917480469	0.904807010025446	0.423806099931647	0.0413843481226869	-0.416978612591787	0.901525878956467	-0.115671630976648	-0.0863314036132916	0.0874041145055343	0.992425014556597
94	9.141516	-0.40475830078125	0.712518310546875	9.47170349121094	0.904277334331754	0.425089134657625	0.0397709719505192	-0.418389053772912	0.900857389932699	-0.115786712046989	-0.0850476472153374	0.0880635599988826	0.992477559999952
95	9.141516	-0.47900390625	1.11248657226562	8.81786315917969	0.903729176257857	0.426346285867055	0.0387610694855304	-0.419731006832179	0.900233213369328	-0.115784469815169	-0.0842582808033742	0.0883685808084614	0.992517776184366
96	9.141516	-0.648451538085938	1.21846618652344	8.66218688964844	0.903526763244553	0.426830496762775	0.0381459714001856	-0.420183008041347	0.899892596691303	-0.116788501889141	-0.0841761715341474	0.0894932480884865	0.992423967209794
97	9.141516	-0.564027099609375	1.13284423828125	8.81427062988281	0.90340028541188	0.427132993137401	0.0377535493856989	-0.420450955195625	0.899661902812095	-0.117598702814306	-0.0841957160003984	0.0903651857852682	0.992343294734828
98	9.141516	-0.608933715820313	1.29570556640625	8.8663623046875	0.903387790399797	0.427184697279	0.0374664458845773	-0.420477838460366	0.899570973862703	-0.118196659628802	-0.0841955314744823	0.0910236089943611	0.99228313252084
99	9.141516	-0.683179321289063	1.235830078125	8.84360961914063	0.903369144292225	0.427237160964645	0.0373175217773581	-0.420452796490784	0.899441458037355	-0.119266548062386	-0.0845200275899951	0.0920514630764096	0.992160719380524
100	9.141516	-0.514330444335938	0.977766723632813	9.21423889160156	0.903559683449869	0.42697209856903	0.0357032979923647	-0.420181513212476	0.899318634709901	-0.12113417857068	-0.0838295556378932	0.0944500942671762	0.991993843375288
101	9.141516	-0.616118774414062	1.11308532714844	8.98790954589844	0.903802817913	0.426612120628665	0.0338018470683875	-0.419737887287123	0.899090128465613	-0.12432637238909	-0.0834300443980703	0.0981786098312729	0.991665461868737
102	9.141516	-0.183817749023438	1.44000549316406	9.02982238769531	0.904442320155383	0.425457389528054	0.0311464156512829	-0.41851561832528	0.899085930242082	-0.128410152474553	-0.0826363523502627	0.103104314830678	0.991231927216602
103	9.141516	-0.0628692626953125	1.84177001953125	8.98671203613281	0.904860683412502	0.424850800328867	0.0269989087590989	-0.417784121550272	0.898410246985112	-0.135334607150638	-0.0817531124467317	0.111179249736952	0.990432028477069
104	9.141516	-0.84065185546875	1.75974060058594	8.66757568359375	0.904970826830926	0.424827794148707	0.0234339050030893	-0.417604199544685	0.897428511248056	-0.142227985016105	-0.0814526556202581	0.1189260800575	0.989556492765605
105	9.141516	-0.626896362304687	2.0549267578125	9.02622985839844	0.905015549652362	0.424878883280778	0.0206104204108397	-0.417478709931665	0.896459541939293	-0.148565865594308	-0.0815989071080293	0.125850006786145	0.98868771315856
106	9.141516	-0.695154418945312	2.51896179199219	8.74002502441406	0.904021407108034	0.427096363546616	0.0182754407790117	-0.419335773540613	0.894281337490093	-0.156263874411286	-0.0830831181378412	0.133602341529582	0.987546257052452
107	9.141516	-0.558638305664062	2.80995666503906	8.91965148925781	0.903505785486085	0.428267953450447	0.0162436338464996	-0.420203798221897	0.892674491269337	-0.162975521465411	-0.0842974706208004	0.140423689897386	0.98649638811429
108	9.141516	-0.589773559570313	3.37039123535156	8.50651062011719	0.903235443275451	0.428923316509667	0.0138029911739598	-0.420620700315914	0.891214297502721	-0.169750706603783	-0.0851114591388908	0.147519030911543	0.985390366830409
109	9.141516	-0.499960327148438	3.41649536132813	8.40292602539063	0.902789215884497	0.429935017179951	0.0112921514836719	-0.421405842464583	0.889516974640301	-0.176569158585191	-0.0859578246547095	0.154646153619296	0.984223460171209
110	9.141516	-0.59156982421875	3.61348571777344	8.46040649414063	0.902642101728073	0.430305572409316	0.00862267600098596	-0.42164011067247	0.888129436255751	-0.182881714581171	-0.0863530732518197	0.161441069153834	0.983097110122104
111	9.141516	-0.4263134765625	3.90328308105469	8.49872680664063	0.902731223544794	0.430166062088578	0.00578766485942957	-0.42145975049741	0.886999201251346	-0.188690475886133	-0.086301893072982	0.16789751638032	0.982019555429188
112	9.141516	-0.506546630859375	3.83921630859375	7.96882873535156	0.902418622502545	0.430855205069296	0.00210286121821018	-0.42215503760637	0.88515134388256	-0.195683986688902	-0.0861728146469214	0.17570114025695	0.980664751751706
113	9.141516	-0.602347412109375	4.15356262207031	8.40472229003906	0.902208195493377	0.431297888484106	-0.00158220533950913	-0.422526864873216	0.883112501106607	-0.203919981486967	-0.0865529921204087	0.184646802784088	0.978986280688662
114	9.141516	-0.673599243164062	4.83973571777344	8.04367309570313	0.901931387620597	0.431841948968214	-0.00568358479475046	-0.423015139831768	0.880690370661013	-0.213172846530882	-0.0870514991134259	0.194671523691328	0.976997970502397
115	9.141516	-0.53408935546875	5.24868530273438	7.94128601074219	0.902043746532166	0.431541906884206	-0.00941604720449862	-0.422645537144157	0.878596269293209	-0.222349602014895	-0.0876802673030909	0.204548718369972	0.974921531477719
116	9.141516	-0.468226318359375	5.53069885253906	7.71435791015625	0.902090652669295	0.431325671006003	-0.0138065165015039	-0.422508324311546	0.876231761539554	-0.231742563972914	-0.0878588086314311	0.214886168937212	0.972679168146082
117	9.141516	-0.525108032226563	5.7911572265625	7.22697143554688	0.902472857022793	0.430375318559797	-0.0178837219747379	-0.421544172594286	0.873894582100071	-0.242092482179727	-0.0885621413975245	0.226020672839225	0.970088347811883
118	9.141516	-0.6370751953125	6.13903381347656	6.80245422363281	0.902426705201706	0.430268968812534	-0.0222408681438371	-0.421456619699487	0.870871687620632	-0.252896859237663	-0.0894447284655465	0.237594440544787	0.967237572870251
119	9.141516	-0.565823364257813	6.361171875	6.51265686035156	0.902142127328318	0.430625319541303	-0.0264842645638484	-0.421720099824366	0.867200854295526	-0.264792061273064	-0.0910589891425554	0.250049020152174	0.963941776258958
120	9.141516	-0.622705078125	6.9120263671875	5.98575256347656	0.901963365934408	0.430756908220777	-0.0301756943971762	-0.421565394904778	0.863273049363123	-0.277564875411272	-0.0935131238439446	0.263074377816187	0.960232871446075
121	9.141516	-0.645457763671875	6.86951477050781	6.45936767578125	0.901911237216543	0.430571847102199	-0.0341175125928922	-0.421196655665198	0.859275215844689	-0.290240384322231	-0.0956530053839337	0.276141246318009	0.956345395055029
122	9.141516	-0.575403442382812	7.44431945800781	5.58398803710937	0.901836345510889	0.430329722495503	-0.0388269990149598	-0.420921035355915	0.854706917241685	-0.303811730540677	-0.0975535130606259	0.290331561419283	0.95194059506535
123	9.141516	-0.74964111328125	8.0089453125	4.89661743164063	0.902032145129675	0.4295103023259	-0.0431150710154931	-0.419758903986596	0.849458413710563	-0.319723108173785	-0.10069990902046	0.306498456068294	0.946529568873062
124	9.141516	-0.613723754882812	7.635322265625	6.21507568359375	0.901962259618759	0.42914172464533	-0.0479735592994214	-0.419558373539949	0.844654655619815	-0.332459447049238	-0.102151130272433	0.319993582604721	0.941896625790676
125	9.141516	-1.13224548339844	8.48794921875	4.26014099121094	0.90205971943267	0.428484486876942	-0.0518585295091913	-0.418649588774598	0.839407403540036	-0.346594478751517	-0.104979923775511	0.334359470312985	0.936580461154358
126	9.141516	-0.846040649414063	8.72864868164062	4.17272277832031	0.90229530004063	0.427392896149953	-0.0565553166832666	-0.417582439530792	0.833798740152796	-0.361115725377783	-0.107182543915052	0.349449528888171	0.930804452632095
127	9.141516	-0.988544311523438	8.727451171875	4.31522644042969	0.902439179226328	0.426565718347189	-0.0603756219699579	-0.416838427178419	0.829131051507437	-0.372541843359366	-0.108854276097607	0.361363234650565	0.926049328717508
128	9.141516	-1.00231567382813	9.2974658203125	2.7063720703125	0.902775992516423	0.425360832226811	-0.0637469194808892	-0.415352212772885	0.823677802266754	-0.386053645751053	-0.111705177501568	0.374997387271333	0.920271108347436
129	9.141516	-0.815504150390625	8.65739685058594	3.99070129394531	0.903177553430078	0.423865452401558	-0.0678850884987457	-0.414278723297369	0.819249514651089	-0.396488804592334	-0.112443080726039	0.386223136288309	0.915526210762128
130	9.141516	-1.43820922851563	9.59684326171875	1.71363647460938	0.903473728328258	0.422779993009068	-0.0706562080208806	-0.41290474023961	0.814138422548786	-0.408274790328077	-0.115086479259285	0.398039830219323	0.910120539187351
131	9.141516	-1.09033264160156	9.77467346191406	1.56454650878906	0.904142025684289	0.420987826220039	-0.0727766965864514	-0.410396262339925	0.808470604766704	-0.421841426469212	-0.118752285236663	0.41127184610995	0.903744080671284
132	9.141516	-0.952020263671875	9.6950390625	1.8345849609375	0.904356030160617	0.419935739366373	-0.0761192847769054	-0.409608628167408	0.803972736604517	-0.431101624361888	-0.119837149677987	0.421048469418263	0.899086894553354
133	9.141516	-1.60586059570313	9.87885681152344	0.463436279296875	0.904736918567449	0.418662062645486	-0.0785696218808844	-0.4077406407521	0.797775837709501	-0.444186090108607	-0.123282918768762	0.433907582404746	0.892482790798526
134	9.141516	-0.920885009765625	9.71779174804688	1.04961730957031	0.905385588488328	0.417218997081198	-0.0787733751479754	-0.404477432141692	0.791098571093667	-0.458869325300375	-0.12913149517336	0.447315726627309	0.88500491392205
135	9.141516	-0.939446411132813	9.49445617675781	1.54418884277344	0.905396668909385	0.416767868359694	-0.0810025668155479	-0.403500970416295	0.785316682826452	-0.46953665942881	-0.132075125594863	0.457801541693969	0.879189347991505
136	9.141516	-1.28792175292969	9.91957214355469	0.173040161132813	0.905958406186321	0.415397850687803	-0.0817556842323237	-0.401053418962465	0.780192311995256	-0.480058445860517	-0.135630090315015	0.467701381169066	0.873418511742045
137	9.141516	-1.16457824707031	10.0656683349609	-0.138312377929688	0.906922726830654	0.413208807757894	-0.0821562459545865	-0.397689895809734	0.775306981809348	-0.49065449221272	-0.139046446660436	0.477658418903069	0.867472489778279
138	9.141516	-1.14721435546875	9.97884887695313	-0.0508941650390625	0.908215617608566	0.410099383769074	-0.0834439174782508	-0.394105719823551	0.771015599089644	-0.500215581087594	-0.140801539530831	0.487189328077559	0.861870921352545
139	9.141516	-1.43880798339844	9.9489111328125	-0.243693237304688	0.909590396600821	0.406856180543181	-0.0843407301686236	-0.390324047445022	0.767085516613207	-0.509143347386947	-0.14245156509389	0.496032114440248	0.85653937040059
140	9.141516	-1.39749389648438	9.78006225585938	-0.61552001953125	0.91037155859138	0.40473575706866	-0.0860964125731202	-0.387804058661947	0.761949830454978	-0.518691110348878	-0.144331692268966	0.505590172787891	0.850615623996578
141	9.141516	-0.97956298828125	9.73395812988281	-0.371826782226563	0.91021760613931	0.404602095783451	-0.0883235730802542	-0.387275303743428	0.756057716555785	-0.527631091148815	-0.146702926298215	0.514464647302507	0.844869444406323
142	9.141516	-1.14062805175781	10.0075891113281	-1.15140563964844	0.909683765825363	0.405281588753002	-0.0906767887148015	-0.387408653517529	0.749444969486658	-0.536886182436164	-0.14963282184575	0.523525616879427	0.838767516715743
143	9.141516	-0.83107177734375	10.2327209472656	-1.48191833496094	0.909699339724083	0.404903671399101	-0.0921961397949837	-0.386101581287042	0.742963021673859	-0.546746300721728	-0.152881261877358	0.532971824126546	0.832206918052241
144	9.141516	-0.913101196289062	9.97884887695313	-1.51245483398438	0.909834193518788	0.404352727844146	-0.0932770700065965	-0.384457311513664	0.736757173340213	-0.556220678468021	-0.156186798186349	0.541929643973033	0.825783231275351
145	9.141516	-1.08075256347656	9.78904357910156	-1.50586853027344	0.910665977094875	0.40227787607014	-0.0941275123772826	-0.3816189954654	0.731767459475246	-0.56469755405272	-0.158285882067282	0.550171696543581	0.8199126074531
146	9.141516	-1.15978820800781	9.5273876953125	-1.24780517578125	0.911458840457043	0.400254177741108	-0.0950756296507842	-0.379096248740129	0.727411467702565	-0.571977788769776	-0.159777396223202	0.557377026666501	0.814740470211554
147	9.141516	-1.69447631835938	9.76808715820312	-1.63699584960938	0.911294246572201	0.400383445444525	-0.0961035523712642	-0.378549739821952	0.722837617240379	-0.578105417361734	-0.161996576029056	0.563204115500076	0.810282810899157
148	9.141516	-1.01848205566406	10.1470989990234	-1.49329467773438	0.911736240714408	0.399205404205141	-0.0968094655566806	-0.376915040260848	0.719316074920697	-0.583540432862922	-0.163315889591684	0.568523904171226	0.806293055031968
149	9.141516	-1.24960144042969	10.1153649902344	-1.75255554199219	0.912240043526296	0.397834683527446	-0.0977019322723937	-0.375392732192407	0.71633494983109	-0.588170499317681	-0.164007315703484	0.573229277194656	0.80281367462359
150	9.141516	-1.76512939453125	9.99082397460938	-2.20401672363281	0.911967275482218	0.398232764395744	-0.0986222784732926	-0.375283956415597	0.712624241436736	-0.592729822578359	-0.165763809399386	0.577561560250022	0.799340355302398
151	9.141516	-0.951421508789063	9.88244934082031	-0.745449829101563	0.911454322177971	0.399097118229338	-0.0998624494198602	-0.376540440362354	0.711482426357146	-0.593304351708863	-0.165735679184723	0.578372066412259	0.798759937302312
152	9.141516	-1.7196240234375	10.183623046875	-2.25012084960938	0.911433772876705	0.398828278630542	-0.101116179834555	-0.376607130502729	0.709700537898373	-0.595392488835106	-0.165697154212847	0.580741896776322	0.797046612447732
153	9.141516	-1.41126525878906	9.80820373535156	-1.16278198242188	0.91137218415179	0.398853183538814	-0.101572043079528	-0.376070720577696	0.706699850313684	-0.599288023149795	-0.167246988249621	0.584372706025504	0.794063590258275
154	9.141516	-1.17894836425781	9.66689758300781	-0.825682983398437	0.911119645675766	0.399050915979138	-0.103050267927245	-0.376407223942897	0.703850850166871	-0.602421432622524	-0.167864805802968	0.587666867515588	0.791497984708204
155	9.141516	-1.21906494140625	10.3404968261719	-1.82141235351563	0.911574732588282	0.397889387239584	-0.103515904230754	-0.3748290156984	0.700854922699525	-0.606881855321456	-0.16892221848286	0.59201892946928	0.788022126118853
156	9.141516	-1.08314758300781	10.0309405517578	-0.45984375	0.911972639563683	0.396633633293401	-0.10482206651142	-0.374056981669602	0.698980547520812	-0.609514207095892	-0.168485249061975	0.595069706108438	0.785814714624601
157	9.141516	-2.28604614257813	9.55253540039063	-0.971180419921875	0.909975280939478	0.401111503134399	-0.105140620753267	-0.377269515150475	0.695635291915729	-0.611358531125105	-0.172083412963729	0.595987502129518	0.784338062501223
158	9.141516	-1.12506042480469	10.1776354980469	-1.33522338867188	0.908916853627313	0.403235191649384	-0.106167478107518	-0.378713387440619	0.691758614049788	-0.614854608880155	-0.174488748535479	0.599058761811728	0.781461628316529
159	9.141516	-1.69447631835938	9.49146240234375	0.996328125	0.90848162669539	0.403864188213578	-0.107493494851944	-0.380314193635548	0.692272905677768	-0.613285690509573	-0.173269293518039	0.598040083558826	0.782512498546005
160	9.141516	-1.85554138183594	10.0614770507813	-0.296383666992187	0.908162748373882	0.404512857760399	-0.107748644411482	-0.380852690821113	0.691559913596176	-0.613755744413986	-0.173757446920453	0.598426464833704	0.782108762146494
161	9.141516	-1.83338745117188	9.47349975585938	2.11180847167969	0.907103588279079	0.406375859495854	-0.109643700002446	-0.384355678294403	0.693554956838835	-0.60930471392164	-0.171562795191935	0.594844671038825	0.785319059136248
162	9.141516	-2.25730590820313	10.2464923095703	-0.130528564453125	0.906763982359448	0.406780999906709	-0.110942770880011	-0.385780563127558	0.694229425333743	-0.607633822391222	-0.170154157776473	0.59378002923278	0.786430441600336
163	9.141516	-1.70465515136719	9.31063842773438	1.906435546875	0.905723088411996	0.408384162510633	-0.113525604723885	-0.3891779167639	0.695090893579823	-0.604474316051322	-0.167947123288092	0.591668002745536	0.78849396846543
164	9.141516	-2.62314514160156	9.85550537109375	1.16517700195313	0.90546873978705	0.409134465950685	-0.112851008146585	-0.389645750528152	0.695968285710535	-0.603161947059406	-0.168233618411441	0.590116203858518	0.78959503264636
165	9.141516	-1.41186401367187	8.40831481933594	4.32121398925781	0.90525936270727	0.409767398078297	-0.112232640987239	-0.390610154865887	0.698808865060006	-0.599241084230041	-0.167120295435582	0.586307811295133	0.792662574660767
166	9.141516	-2.42495727539062	9.22741149902344	1.76991943359375	0.903880995835049	0.412240334019527	-0.114267459828722	-0.394554998438566	0.700160033139567	-0.595064938642115	-0.165304260608682	0.582952686760657	0.795512832343482
167	9.141516	-1.20888610839844	8.26700866699219	4.04339172363281	0.904742166077482	0.410363609359625	-0.11420735980999	-0.394010501162459	0.704361169099971	-0.590449886474568	-0.161855917084099	0.579203808324379	0.798952821214996
168	9.141516	-2.38424194335938	9.58367065429688	1.58131164550781	0.904633352430319	0.41055399748713	-0.11438493265295	-0.3947573887723	0.706009298231522	-0.587977444142468	-0.160639664094387	0.577058303776986	0.800748782304207
169	9.141516	-1.24121887207031	8.18917053222656	4.90080871582031	0.905331004330703	0.409330451162782	-0.113244665871885	-0.393518453934494	0.708185088860014	-0.586188626919135	-0.159746671359898	0.575258604166168	0.802221004039551
170	9.141516	-1.829794921875	8.18557800292969	5.22653137207031	0.905224749752876	0.40948356213182	-0.113540146109996	-0.394857462938909	0.711838790692606	-0.580838290771826	-0.157021452025804	0.570621370445521	0.806061731627662
171	9.141516	-2.16150512695312	9.1250244140625	2.82851806640625	0.905716771649982	0.408832110269601	-0.11195282562061	-0.393540251344615	0.712895396063173	-0.580436236673375	-0.157490317554926	0.569768777561949	0.80657320807972
172	9.141516	-0.849633178710938	6.56295227050781	7.50060241699219	0.907052261157134	0.406268060795385	-0.110464737845559	-0.391915607410276	0.718917120023732	-0.574073454537847	-0.153812717933093	0.564007479839	0.811318193120119
173	9.141516	-1.67351989746094	8.82025817871094	2.84348693847656	0.908446055309863	0.403463410627922	-0.109284220619599	-0.389537868556438	0.722312105498139	-0.571424073006513	-0.151611389916641	0.561678287398872	0.813345859958858
174	9.141516	-1.45018432617187	6.38631958007813	6.88687866210938	0.909066228022247	0.402818276002753	-0.106470792180641	-0.388816352793872	0.728333764206333	-0.564226702414114	-0.149734554694215	0.554317025207781	0.818725960682402
175	9.141516	-1.18972595214844	7.50000366210938	4.7756689453125	0.91167073996299	0.397669032124085	-0.103517161788896	-0.383444847372978	0.732704642308157	-0.562240123224223	-0.147737980622614	0.552270991479337	0.820469524755175
176	9.141516	-0.212557983398438	5.95341979980469	8.22808959960938	0.911331247244096	0.398155309469042	-0.104631292346657	-0.385749635007945	0.737133352996795	-0.55482577354602	-0.143779612211737	0.545991547041997	0.825360923275951
177	9.141516	-1.24301513671875	7.72154296875	4.64933166503906	0.911134712601454	0.398200455381587	-0.106159939838735	-0.386815079612554	0.73749282786649	-0.553604934072865	-0.142153542611503	0.545472938081611	0.825985256613952
178	9.141516	-0.250878295898438	4.5457470703125	9.14478332519531	0.910835175245191	0.398786013676978	-0.106531679943985	-0.388864612437195	0.742456351341062	-0.545474911932151	-0.138432643296778	0.538264137435277	0.831329129539513
179	9.141516	-1.1639794921875	6.44619506835938	5.62530212402344	0.910487159966634	0.399927545063583	-0.105219248406884	-0.389348006666803	0.743273245895872	-0.544015635473836	-0.139360185277148	0.536286155550216	0.832451739216568
180	9.141516	0.0940045166015625	3.60091186523438	10.2327209472656	0.90896260388548	0.403954853113533	-0.102992530718267	-0.392991417631289	0.747891341560622	-0.534991856841582	-0.139085334977769	0.526762771904658	0.838556051632474
181	9.141516	-1.68369873046875	5.910908203125	5.52710632324219	0.911998630309889	0.398503094358009	-0.097230561553343	-0.386003002019183	0.753560522591656	-0.532116736462563	-0.138781053263999	0.522821023466427	0.84106955519532
182	9.141516	-0.129929809570312	3.80867980957031	8.76756774902344	0.914842312127677	0.391969263601583	-0.0970754362983725	-0.381500897027142	0.760151512807897	-0.52595317580879	-0.132365439251991	0.518198585454938	0.8449553932156
183	9.141516	-0.051492919921875	5.00020202636719	7.83111511230469	0.917217675114534	0.386904455211674	-0.0949561951367449	-0.377015803330038	0.765981278190367	-0.520703145276902	-0.128727699027427	0.513398114526349	0.848440661156627
184	9.141516	-0.590372314453125	3.95477600097656	7.43114685058594	0.918892062778101	0.382983428862447	-0.0946629292815828	-0.373920969553163	0.768991195032276	-0.518493635921652	-0.125779511415131	0.511836140947077	0.849825440504446
185	9.141516	0.141904907226563	2.42196350097656	10.0327368164063	0.921768676089032	0.376347078454148	-0.0933026490518925	-0.368804908006049	0.776712800925497	-0.510588057742363	-0.119688961946052	0.505054552912352	0.854748179858127
186	9.141516	0.0425115966796875	3.99549133300781	7.65807495117188	0.923489102959504	0.371638776797287	-0.095144607286315	-0.366129230350634	0.779790942852762	-0.507814407168262	-0.114530622096901	0.503796293183482	0.856196257628285
187	9.141516	0.3113525390625	1.85554138183594	10.6428680419922	0.925041131767872	0.368270950965514	-0.0931418875295723	-0.363467026102241	0.786817287103129	-0.49880885883479	-0.110411165531428	0.495272716178298	0.861692701103684
188	9.141516	0.662222900390625	3.61408447265625	7.81794250488281	0.928128328978584	0.360935805326745	-0.0911216186234401	-0.35706616566705	0.793943947668095	-0.492094260581275	-0.105268980631771	0.489263070744498	0.865759833511819
189	9.141516	0.44068359375	1.47413452148438	9.46332092285156	0.929456777482446	0.357715422012951	-0.0902761078361437	-0.354704256509009	0.799151861209094	-0.485325862839013	-0.10146422623929	0.483110732213783	0.869660296445414
190	9.141516	0.2251318359375	1.07716003417969	9.76090209960937	0.930090639331809	0.356770080699229	-0.0874443374107951	-0.353634839963325	0.805276151199047	-0.47589150052734	-0.0993670095729003	0.473545594244013	0.875146140699154
191	9.141516	-0.609532470703125	1.88607788085938	6.67192565917969	0.931381038723172	0.353999475504883	-0.0849336920733701	-0.350219147532214	0.807592269280162	-0.474490542899148	-0.0993776101984499	0.471676899944429	0.876153521165131
192	9.141516	0.975970458984375	-0.003592529296875	10.4273162841797	0.931821020774402	0.352798487491269	-0.0851047147156101	-0.350212927771336	0.812620705919797	-0.465830970988663	-0.0951866086420876	0.463875862202685	0.880771646910216
193	9.141516	0.061072998046875	1.41904907226563	7.12458435058594	0.933371524855245	0.348764046197706	-0.0847421776283812	-0.3465513189701	0.814317391104756	-0.465606453847483	-0.0933797617767347	0.463951319239582	0.880925305270755
194	9.141516	0.252075805664063	-0.6370751953125	10.432705078125	0.93443256210617	0.346249805017253	-0.0833478218144454	-0.344113855200587	0.817500664247738	-0.46182065633046	-0.0917684125104506	0.460221399415566	0.883048595483448
195	9.141516	0.861009521484375	1.78548706054688	7.75986328125	0.935938377157488	0.341764202710695	-0.0849504791589289	-0.341094292279258	0.819743940612548	-0.460081031562402	-0.087601586391574	0.459583617608956	0.883803632311581
196	9.141516	0.34727783203125	-0.12214599609375	9.20226379394531	0.937425079345479	0.337916040328696	-0.083946234595109	-0.337357042908799	0.821811459066125	-0.459147200086681	-0.0861652262455849	0.458735953938846	0.884385028338825
197	9.141516	0.913101196289062	-0.149688720703125	9.42260559082031	0.938738333825771	0.334165399834304	-0.0842841987539549	-0.334544210443522	0.824856175990814	-0.45573288249646	-0.0827678190164326	0.456010717509349	0.886117212140624
198	9.141516	0.418529663085938	0.65863037109375	7.80596740722656	0.939807208626096	0.330899709447326	-0.0852513513212641	-0.331898783348291	0.824629519068998	-0.458071341487281	-0.0812748929642516	0.458793568577098	0.884817977442785
199	9.141516	1.17954711914063	-0.837658081054688	10.1512902832031	0.940490338975046	0.329012230351258	-0.0850227885563281	-0.330308161558527	0.826304785036327	-0.456198334755724	-0.0798400945792849	0.457133847472883	0.885807092313112
200	9.141516	0.52929931640625	0.522713012695313	8.00475402832031	0.941518481061686	0.325834511525862	-0.0858767775245374	-0.327700034276984	0.826064939940527	-0.458507799863773	-0.078457869931317	0.459835390221063	0.884531388106767
201	9.141516	0.581390991210938	-0.68258056640625	10.0662670898438	0.941789551616772	0.324807416594864	-0.0867904521848437	-0.327210825174404	0.826226999878212	-0.458565175913888	-0.0772367552022025	0.460270666887669	0.884412458555744
202	9.141516	0.50534912109375	0.758023681640625	8.58674377441406	0.943315821932193	0.320323617600207	-0.0868794572951973	-0.323001167923738	0.825825339512999	-0.462258319706786	-0.0763249999167593	0.46411775297413	0.882479011513561
203	9.141516	0.750239868164063	0.31853759765625	9.39446411132812	0.944248694455346	0.317332136907077	-0.0877195411830404	-0.32066977741955	0.826072911425914	-0.463437632112466	-0.0746009173473852	0.465729384830183	0.881777093848909
204	9.141516	0.6466552734375	0.822090454101563	8.58614501953125	0.9450850631694	0.314279767152049	-0.0896797152813581	-0.318506718274194	0.82416810878047	-0.468295204847782	-0.0732645465985738	0.471142395065522	0.879009186404573
205	9.141516	0.868194580078125	0.547860717773437	9.41781555175781	0.945426490378654	0.312599957937419	-0.0919239772193573	-0.317989004811966	0.82364165457043	-0.469571525622222	-0.0710756224664701	0.473176173485109	0.878095988338971
206	9.141516	0.97956298828125	1.3651611328125	8.69272338867188	0.946066618608944	0.310218780445967	-0.0933930479878262	-0.316254628824025	0.821777075252349	-0.47398886942319	-0.0702919831930864	0.477961030679608	0.875563984098518
207	9.141516	0.950223999023438	0.331710205078125	10.1399139404297	0.946451132768099	0.309037195612896	-0.0934144796575958	-0.315260587331102	0.822319712449211	-0.473709882304661	-0.0695774055109202	0.477793158432772	0.875712671141172
208	9.141516	0.816102905273438	1.72800659179687	8.67955078125	0.946915222400801	0.307394677998763	-0.0941279635585478	-0.314080066218941	0.822093836887024	-0.474884654791327	-0.0685949968259253	0.479239225533979	0.874999709211405
209	9.141516	0.925675048828125	1.30648315429688	9.24417663574219	0.947485717699857	0.305334785760199	-0.0950867149477754	-0.312757139692314	0.822668488077459	-0.474762604146356	-0.0667366940016432	0.479569835716468	0.874962277098053
210	9.141516	0.702339477539063	1.52981872558594	8.69751342773437	0.947839186891009	0.303800857185354	-0.0964671704116679	-0.31194845026554	0.821933927335746	-0.476563514624613	-0.0654907640107936	0.481798358515136	0.873831391952362
211	9.141516	0.4550537109375	1.47892456054688	8.64182922363281	0.948355717659032	0.301624287093222	-0.0982050009873647	-0.310656074879881	0.820532731260323	-0.479811254631132	-0.0641423099338342	0.485539726866897	0.871858324333932
212	9.141516	0.4933740234375	1.75554931640625	8.69691467285156	0.949313334414702	0.297645547828665	-0.101051080945301	-0.308098305959309	0.817392243777907	-0.486770329495054	-0.0622866515992326	0.493231231441697	0.867665445527862
213	9.141516	0.866398315429688	2.56446716308594	8.33167419433594	0.949555945228415	0.296310529059024	-0.102681922703717	-0.307205271623455	0.813148064784829	-0.494383601895781	-0.0629954599009322	0.50098931635859	0.863157735831883
214	9.141516	0.949026489257813	2.82253051757813	8.11252990722656	0.949808761740102	0.294699570919332	-0.104954652215591	-0.306240460574311	0.807403478647445	-0.504297930766367	-0.0638756325132544	0.511127954203218	0.857127830608168
215	9.141516	0.463436279296875	3.15244445800781	7.60418701171875	0.95032563283006	0.292147129280395	-0.107383641395559	-0.30468921141704	0.802654830118701	-0.512747216602081	-0.0636056289349305	0.519995460115128	0.851797537814855
216	9.141516	0.764609985351563	4.49904418945312	7.64669860839844	0.95090865877117	0.289811818531601	-0.108544150065398	-0.302365647675404	0.795322379278549	-0.525392546696793	-0.0659373777143665	0.532420344143717	0.843908075184755
217	9.141516	0.153880004882813	4.3924658203125	8.57177490234375	0.950678864313141	0.290245741488122	-0.109394270856783	-0.302326421989588	0.788229977783959	-0.535996489437825	-0.0693428548247776	0.542633312348873	0.837102536619046
218	9.141516	0.6274951171875	5.44328063964844	7.43653564453125	0.951018977794482	0.288640754188128	-0.110677092916499	-0.300715028664409	0.780819536030226	-0.547623341073867	-0.0716475778383489	0.554082455213346	0.829372809666827
219	9.141516	-0.049097900390625	4.9097900390625	8.7609814453125	0.951025601162159	0.288412232880631	-0.111214611715204	-0.300153811557074	0.775634075387913	-0.555247215666047	-0.07387824674365	0.561435806679575	0.824215893826453
220	9.141516	0.259260864257813	6.62043273925781	6.40847351074219	0.950772867727681	0.287773916980942	-0.114965763157247	-0.30069168827714	0.767007079692613	-0.566819767035743	-0.074936390318228	0.573486104807131	0.815780745665904
221	9.141516	0.191002807617188	6.25758728027344	7.58502685546875	0.9503614079934	0.288652896493971	-0.116158079970543	-0.301458563725645	0.761756656921127	-0.573454034768977	-0.0770449774694814	0.58000543185559	0.810961016612228
222	9.141516	0.219144287109375	7.12398559570313	6.18214416503906	0.950655239611718	0.287143809443996	-0.117486374089835	-0.300080308337579	0.754859123559645	-0.583214807876814	-0.0787808602822433	0.589691560289576	0.803776983855867
223	9.141516	-0.476010131835938	5.99353637695313	8.22629333496094	0.950185734198628	0.288061692546627	-0.119027441426703	-0.30096007162303	0.748643322626217	-0.590725156714896	-0.0810561892397802	0.59712112403963	0.798045272783177
224	9.141516	-0.0413140869140625	8.04906188964844	5.23132141113281	0.94983843233972	0.288452290188679	-0.120839681956422	-0.301467406907287	0.74168110566456	-0.599188234257643	-0.0832127095041351	0.605561238674588	0.791436182640065
225	9.141516	-0.541873168945313	6.88747741699219	6.66653686523438	0.949354843856707	0.289151775060297	-0.122949710960567	-0.302326541679258	0.734044599601644	-0.608093075106042	-0.0855806207155991	0.614467067282814	0.784287052413076
226	9.141516	-0.540675659179688	7.89099060058594	5.29957946777344	0.948693363949712	0.290071037381799	-0.125855847977069	-0.303835352084452	0.726071889065101	-0.616849812136757	-0.087549871624676	0.623440779209768	0.776953418678894
227	9.141516	-0.698746948242188	8.59991638183594	4.04399047851563	0.948084682705728	0.29070362985356	-0.128945081367008	-0.304767226644453	0.714721789290728	-0.629515449752037	-0.090842567016947	0.63613219027418	0.766213719868515
228	9.141516	-0.800535278320313	8.78313537597656	3.39134765625	0.946728959529553	0.293809133031563	-0.131835012554827	-0.3075193543506	0.703323492860771	-0.640911781050961	-0.095583073228893	0.647311561566273	0.756208713500945
229	9.141516	-0.891546020507813	8.35742065429688	4.54694458007812	0.945805477317709	0.29610001836663	-0.133329584860611	-0.308624990961525	0.691916775360387	-0.652688126848408	-0.101007989930602	0.65846484727597	0.745802541475969
230	9.141516	-1.23223754882812	8.861572265625	3.3290771484375	0.944549224691492	0.299028443346196	-0.135678856881433	-0.310771945808242	0.680603528953725	-0.663475420851666	-0.106054513497825	0.668850376725383	0.735793186786242
231	9.141516	-1.24900268554687	9.66510131835938	2.33095275878906	0.943169175291996	0.301722690177557	-0.139267099528337	-0.31333512172047	0.667846621907685	-0.675131091791003	-0.110693307274812	0.680400108640873	0.724432663458829
232	9.141516	-1.829794921875	9.07652526855469	2.85426452636719	0.941891046084497	0.304236637369625	-0.142412519772227	-0.315126470927893	0.653419733128332	-0.688286248358218	-0.116346743084557	0.693168609243467	0.711323213829757
233	9.141516	-1.81003601074219	9.57648559570313	1.59149047851562	0.941088982135384	0.307209796330619	-0.141328230519901	-0.314409709349647	0.641053260853241	-0.70014087969215	-0.124491214027565	0.70332983570152	0.699877903524619
234	9.141516	-0.829874267578125	10.0201629638672	1.839375	0.941121389476584	0.306268646075584	-0.143143447983803	-0.312849762672296	0.628525899233426	-0.712095653679126	-0.128123207365221	0.714950844760563	0.687335240847293
235	9.141516	-2.25790466308594	9.77048217773438	0.176632690429688	0.941659462187406	0.304946894237098	-0.14242488886453	-0.309383131060392	0.617670985151282	-0.723024641570061	-0.132512397488665	0.724906853186942	0.675981152632537
236	9.141516	-2.44950622558594	9.52858520507812	0.40236328125	0.941900741367756	0.305245691113043	-0.140171543002823	-0.305788778362541	0.606580685836656	-0.733861768044553	-0.138982791878765	0.734087828278643	0.664679504674795
237	9.141516	-2.16749267578125	9.05736511230469	1.33222961425781	0.942149081066627	0.304925360103107	-0.139196385769538	-0.302846657138167	0.596376962955486	-0.743383091222977	-0.14366283898611	0.742532856392215	0.654221633601694
238	9.141516	-2.11420349121094	10.2357147216797	-1.04303100585938	0.94238192943258	0.304821747118873	-0.137840493188055	-0.299501937845956	0.585167873308051	-0.753576239855431	-0.149046597765416	0.751440125712975	0.642746333449693
239	9.141516	-2.09384582519531	9.35794006347656	0.411344604492188	0.942405166429929	0.304872561671845	-0.137568976974552	-0.297955864983232	0.578340622714878	-0.759436914193576	-0.151969749648646	0.75668675504294	0.635869758625392
240	9.141516	-2.77103759765625	9.819580078125	-2.13575866699219	0.942714238730816	0.303762285383362	-0.137906990659851	-0.295677652665015	0.569382076270049	-0.767058522498065	-0.154481681142737	0.763893006383148	0.626580310088203
241	9.141516	-2.11659851074219	9.43517944335938	-0.79754150390625	0.943686503411412	0.302110868762232	-0.134851052108885	-0.290849821156108	0.563311699557217	-0.773360401543433	-0.15767740742606	0.76903117759795	0.619458540234701
242	9.141516	-2.07528442382812	9.33219360351563	-0.413739624023438	0.942726244151254	0.304374092537584	-0.136468459287824	-0.292518629354432	0.557739476498645	-0.776762208037712	-0.160312445147201	0.772193685643013	0.614830734254547
243	9.141516	-2.53931945800781	10.126142578125	-2.56506591796875	0.942651086610611	0.304132666869507	-0.137521815922699	-0.291324944594906	0.548582275134685	-0.783701004251511	-0.162907045791795	0.778820138639785	0.605723110076292
244	9.141516	-2.47525268554688	9.50283874511719	-0.58677978515625	0.942198029609183	0.305247209988421	-0.138155759180928	-0.291493893182581	0.543456300683481	-0.787201727313074	-0.165209513157797	0.781971476488567	0.601021153305317
245	9.141516	-2.22676940917969	9.85191284179688	-2.2273681640625	0.942268220295396	0.304948797102024	-0.138335939536242	-0.29004656770609	0.536815989337632	-0.792276203197708	-0.167342730894602	0.786660552422382	0.594273998824826
246	9.141516	-2.14773376464844	9.58367065429688	-1.18673217773438	0.942537683874812	0.304004449509294	-0.138578530640416	-0.288740670972487	0.532525547484876	-0.795641480946218	-0.168081942522877	0.789935336565269	0.589703844860497
247	9.141516	-2.58602233886719	9.7716796875	-2.26209594726563	0.942282098004183	0.304744260440123	-0.138691685077505	-0.28772175095724	0.525154931036114	-0.800892310135735	-0.171232712432337	0.794571100743827	0.582525642401953
248	9.141516	-2.270478515625	9.35374877929688	-1.08015380859375	0.942594716499096	0.303629733585835	-0.139011457479532	-0.286365068532355	0.520803186383909	-0.804213335239367	-0.171785470725693	0.797855266282652	0.577855281288135
249	9.141516	-2.60638000488281	9.62438598632813	-1.91362060546875	0.942703735734729	0.303091634313374	-0.139445788179621	-0.285317969383193	0.515758276527719	-0.807828605918489	-0.172925773032359	0.801329433755185	0.572684743658111
250	9.141516	-2.43393859863281	9.57109680175781	-1.6813037109375	0.942892679446216	0.302709252432983	-0.138998214154718	-0.283501956062001	0.510222937645451	-0.811972410128242	-0.174871484112636	0.805009107024207	0.566904137974255
251	9.141516	-2.02678527832031	9.6615087890625	-1.18014587402344	0.943087995897915	0.302117279611386	-0.138961078556088	-0.282300008038456	0.506487655387723	-0.814725082712773	-0.175760454752322	0.807586159056768	0.562950138329492
252	9.141516	-2.48064147949219	9.64773742675781	-1.81362854003906	0.943435442535968	0.301378998655071	-0.138203708114615	-0.280121739196991	0.501537392639784	-0.818530423999829	-0.177373552132825	0.810944475875972	0.557590961234156
253	9.141516	-2.3375390625	9.3932666015625	-0.743653564453125	0.943226081211094	0.30182590975456	-0.138656698085585	-0.280160879317503	0.498706751584037	-0.820244754707119	-0.178422087823251	0.812522428075269	0.554953027247768
254	9.141516	-2.45010498046875	10.0512982177734	-1.92379943847656	0.943724953278713	0.30023850034205	-0.138708527032221	-0.278469474913176	0.495068847379969	-0.823019797997259	-0.178431959302899	0.815330411101061	0.550816082402377
255	9.141516	-2.3614892578125	9.95310241699219	0.4071533203125	0.943747515952339	0.299933014456789	-0.139214988318982	-0.278909085909198	0.495884736538226	-0.822379504769976	-0.17762417608841	0.814946939933685	0.551644031202764
256	9.141516	-2.84288818359375	10.4638403320312	-2.385439453125	0.943597181100605	0.299557023030812	-0.141031733208909	-0.280065999169474	0.494941474899904	-0.822554540764995	-0.176599535469931	0.815658339243108	0.550921117488683
257	9.141516	-1.71722900390625	9.29866333007813	0.786165161132813	0.943277246002677	0.29945610412384	-0.143366937878218	-0.282468954112593	0.496933449520976	-0.820529363709624	-0.174468699588615	0.814483387461129	0.55333306824525
258	9.141516	-2.72732849121094	9.43218566894531	-0.05508544921875	0.943412036605244	0.298562901890438	-0.144339609266161	-0.283587463235612	0.500706264199812	-0.81784557691942	-0.171906602211601	0.81249826498635	0.557041012413119
259	9.141516	-1.98187866210938	8.82564697265625	1.22325622558594	0.943643200106771	0.297543684996327	-0.144931937167273	-0.284681528806996	0.506372222335931	-0.81396781238737	-0.168801475255294	0.809354636710865	0.562539895461877
260	9.141516	-2.19323913574219	8.9142626953125	1.04542602539063	0.943670285242558	0.297828897358743	-0.14416775176268	-0.286016030466324	0.515126073337654	-0.807985122934833	-0.166376750378522	0.803705839512073	0.571293007543132
261	9.141516	-1.65376098632813	9.17232604980469	1.25079895019531	0.94697125475933	0.288398721007694	-0.14167434623342	-0.280826560823663	0.528577304018842	-0.801088307499321	-0.156146999316329	0.798393519135332	0.58153753379056
262	9.141516	-1.25558898925781	10.9727819824219	3.10993286132812	0.947019763456118	0.29006252661819	-0.137903220685345	-0.281182103037263	0.541283479609088	-0.79243221769046	-0.155210156095087	0.789224888960144	0.594166544068908
263	9.141516	-1.58310791015625	9.58726318359375	2.17108520507813	0.946353240392865	0.292691537098095	-0.136920445913239	-0.283265252864789	0.547544111184737	-0.787373001077865	-0.155487430094438	0.783917795701865	0.601079486145182
264	9.141516	-0.908311157226563	7.4676708984375	7.98260009765625	0.945971921508027	0.295301388915923	-0.133918682127394	-0.285987137971882	0.565228919585323	-0.773774919068239	-0.152802096298	0.77026836762828	0.61914308620722
265	9.141516	-2.61356506347656	9.819580078125	-0.708327026367188	0.945546984556727	0.297397831828595	-0.132270290010009	-0.286237621510281	0.566315952612123	-0.772886968352527	-0.154948133347318	0.768661675537862	0.620604789323695
266	9.141516	-0.633482666015625	4.87566101074219	9.68366271972656	0.9442009292936	0.301949556859149	-0.131571540363666	-0.291094011387756	0.578101843251294	-0.762274580032446	-0.154106721642144	0.758040054312449	0.633740005367099
267	9.141516	-2.14174621582031	9.80580871582031	0.872984619140625	0.945002738086455	0.30076357270579	-0.128495518763706	-0.288566128437744	0.581804898398398	-0.760416103010768	-0.153946141645565	0.755674753801448	0.636597401769411
268	9.141516	-0.368234252929688	6.98148193359375	9.19986877441406	0.94680459076498	0.297842831301772	-0.121863508682887	-0.283341821116734	0.592008521945708	-0.754482155090437	-0.152572865584325	0.748876196567765	0.644907716577795
269	9.141516	-1.44719055175781	5.76840454101563	6.58750122070313	0.947666110022113	0.295517696497169	-0.120823155779689	-0.28158319422093	0.595299577231648	-0.752548548653281	-0.150465440044863	0.74718652584534	0.647358051581408
270	9.141516	-0.304766235351562	6.50367553710938	8.65440307617188	0.948310300278661	0.294357735955174	-0.118579499361144	-0.280751313794031	0.603995806668678	-0.745900640386894	-0.147940103380798	0.74063661049802	0.655416765883878
271	9.141516	-0.774190063476562	6.12765747070313	6.49768798828125	0.949215682748874	0.292094898882712	-0.116919449495314	-0.278993995632382	0.60965755353053	-0.741943406079094	-0.145437058635918	0.736884141144229	0.660189233860615
272	9.141516	-0.728684692382813	4.12841491699219	10.6895709228516	0.950170855111067	0.290213629648458	-0.113804197039351	-0.277612058384979	0.621710500381279	-0.732398524544469	-0.141798769870401	0.727497149741446	0.671298000876893
273	9.141516	-0.594563598632812	4.84991455078125	7.42515930175781	0.950144300458367	0.290205959782225	-0.114045206884638	-0.278864961217625	0.627243701925747	-0.72718613284329	-0.139499611868903	0.722734971688353	0.676900302102948
274	9.141516	0.10298583984375	4.17751281738281	9.94471984863281	0.951487075857904	0.286325872360361	-0.112649186825534	-0.277256642797046	0.639096620600229	-0.717414986993078	-0.133420757381628	0.713843823503745	0.68747792484215
275	9.141516	-1.18433715820313	3.97453491210938	7.07788146972656	0.952244839464599	0.2843132568342	-0.111336147325888	-0.275878243926868	0.644881114421672	-0.712754896714215	-0.130847087246408	0.709432393009083	0.692520555296764
276	9.141516	-0.519120483398438	1.96571228027344	9.90280700683594	0.953574974088165	0.281196454159252	-0.107811515901689	-0.272932706355011	0.655621800175231	-0.704036783795221	-0.127289067065814	0.700777146675927	0.701932250364849
277	9.141516	0.140707397460937	3.24106018066406	7.58382934570313	0.953826643252501	0.280373094371099	-0.107729580777244	-0.272935316953134	0.65934727700665	-0.700547986267614	-0.125383600926749	0.697604541453603	0.705426719342237
278	9.141516	-0.0616717529296875	2.07767944335938	9.53517150878906	0.954176720209855	0.279599486662611	-0.106634486295799	-0.272858994766601	0.666625047861975	-0.693656265406707	-0.122860716197345	0.690966839016913	0.712369336646694
279	9.141516	-0.729882202148438	2.1842578125	7.74788818359375	0.954920863682776	0.277304757574637	-0.1059632744389	-0.271729055293198	0.672765977894167	-0.688149154978462	-0.119538548647739	0.685921285873662	0.71779002847115
280	9.141516	0.0784368896484375	1.51724487304688	9.196875	0.955668969174153	0.274574587155995	-0.106327877086523	-0.2711440910904	0.67987547349073	-0.681359099456752	-0.114794177658854	0.679983923805461	0.724185169788609
281	9.141516	-0.140108642578125	2.481240234375	7.20182373046875	0.955899610055133	0.274155845665868	-0.105330469398353	-0.270989939337086	0.685063991999339	-0.676203948261183	-0.113227153432944	0.674926587973212	0.729145878800882
282	9.141516	0.32332763671875	-0.485590209960938	11.0967242431641	0.956261518171631	0.274180552963659	-0.101926116577788	-0.27035477461081	0.695396615003245	-0.665831693213207	-0.111679025377307	0.664265438073192	0.739107044393574
283	9.141516	1.41725280761719	3.12130920410156	9.19328247070313	0.957376944744621	0.271138431536869	-0.0995657401678982	-0.268062110313331	0.70566699009723	-0.655878650438845	-0.107573652377423	0.654612900904682	0.748271247131238
284	9.141516	0.320333862304688	-0.8478369140625	10.3027752685547	0.956750013916935	0.274109808020314	-0.0974331771883217	-0.270279849503198	0.713677523759674	-0.64622998617581	-0.107602108819823	0.644614772734325	0.756897338448353
285	9.141516	0.92687255859375	-0.643661499023438	9.00647094726563	0.958128759886571	0.269741770387355	-0.0960658981455904	-0.267178776749847	0.72154343778999	-0.63874139417816	-0.102979516082952	0.637663269046053	0.763400795504447
286	9.141516	0.0089813232421875	0.0449066162109375	6.85634216308594	0.959373415447736	0.265821309820399	-0.0945604620204085	-0.263226718279401	0.722652555121352	-0.639128296479226	-0.101559561420885	0.638053536799185	0.763264921021561
287	9.141516	0.70174072265625	-2.08067321777344	10.2650537109375	0.960208575586975	0.263411900194518	-0.0928098173963645	-0.260701529906977	0.726190541397148	-0.636146217382041	-0.100170872380122	0.635028714643071	0.765966270736104
288	9.141516	-0.1484912109375	-1.00231567382813	8.27060119628906	0.960996960706574	0.260955061715928	-0.0915821886480348	-0.257772112673927	0.725209663310001	-0.638454761255185	-0.10019171343154	0.63716041936598	0.764191219887418
289	9.141516	0.947828979492188	-1.40587646484375	9.85610412597656	0.961797088817078	0.258499659010515	-0.0901348225406856	-0.255261978032034	0.727814228695545	-0.636496481592383	-0.0989327171069649	0.635188456129169	0.765994740638653
290	9.141516	0.467627563476563	-0.6753955078125	8.53884338378906	0.962282411687153	0.256716382505016	-0.0900514248143523	-0.253696985370486	0.727246328105696	-0.637770035256212	-0.0982364482841475	0.636560662631866	0.764944522836915
291	9.141516	0.871787109375	-1.18733093261719	9.57768310546875	0.9630968450138	0.253591506428408	-0.0901987527177391	-0.251546358979369	0.728820928120775	-0.636823746430199	-0.0957543545155378	0.63601210884742	0.765715156563307
292	9.141516	0.3209326171875	-0.322130126953125	8.13468383789063	0.963892996248306	0.250439615307234	-0.0905002257910338	-0.249081363502323	0.727746433982779	-0.639017685343037	-0.0941741266977683	0.638486591018256	0.763849531616404
293	9.141516	0.680185546875	-0.145497436523437	8.60410766601563	0.964945535837105	0.246690352599371	-0.0895766867127871	-0.245638732624814	0.72871124101226	-0.639250764768293	-0.0924214580198661	0.638845675540478	0.763763364492375
294	9.141516	0.398770751953125	-0.692759399414063	9.14238830566406	0.96540859635931	0.245037223018382	-0.089123517721123	-0.244070361118628	0.728993168282521	-0.639529998843553	-0.0917382194015686	0.639160167667582	0.763582594856757
295	9.141516	0.8190966796875	-0.827479248046875	9.56750427246094	0.966600646004977	0.240380716559084	-0.0888836444420639	-0.240440084575667	0.730487580452986	-0.639199859616058	-0.0887229219086472	0.639222188218216	0.763886926984295
296	9.141516	0.884360961914063	0.28740234375	8.49094299316406	0.967513643754944	0.237142772897874	-0.0876393428223873	-0.237073121054215	0.730578434836961	-0.640352626155925	-0.087827583489732	0.64032683515021	0.763064780844242
297	9.141516	0.762813720703125	-0.50055908203125	9.532177734375	0.968276305386585	0.233967873988355	-0.0877498169130522	-0.234790758618909	0.73166859104281	-0.639948726499699	-0.0855236580956522	0.640250034613665	0.76339085472852
298	9.141516	0.2730322265625	-0.33290771484375	8.77954284667969	0.968979652109784	0.230835347472375	-0.0882806669351208	-0.23261396112664	0.731191942528097	-0.641287056060671	-0.0834816080713348	0.641929424110857	0.762205638639946
299	9.141516	0.649649047851563	-0.478405151367188	9.51960388183594	0.969128064242632	0.22960116821894	-0.0898559883915812	-0.23274877687201	0.73167801110348	-0.640683459231031	-0.081356019825907	0.641818192029608	0.762529085620957
300	9.141516	0.869990844726563	-0.0065863037109375	8.71128479003906	0.968846234306837	0.227335532893549	-0.0982625551950911	-0.23636135781219	0.730256224608632	-0.640982959955665	-0.0739613602000406	0.644239397975903	0.761239328524878
301	9.141516	1.772314453125	0.571810913085938	8.65739685058594	0.968393284761106	0.223044746989893	-0.111648944776971	-0.241712243107456	0.728697830089903	-0.640761003771475	-0.0615600321763927	0.647495570071704	0.759578731387313
302	9.141516	1.63220581054688	0.29458740234375	9.17771484375	0.96803563414714	0.217205937788479	-0.125413681912192	-0.246277468129921	0.728509064167612	-0.639235443414355	-0.0474807299107836	0.649689251885129	0.758715662334765
303	9.141516	1.49030090332031	0.296383666992187	8.59752136230469	0.967497621843558	0.213509888574079	-0.135506011704815	-0.250157021594345	0.72964814819051	-0.636423635944806	-0.0370110290873857	0.649636134557834	0.759343845963506
304	9.141516	2.97401550292969	0.7232958984375	8.45322143554688	0.967604909521824	0.207703099256374	-0.143527564002739	-0.251087001028091	0.732269858327045	-0.633037259962167	-0.0263828918805936	0.648567866259951	0.760699458308622
305	9.141516	3.6356396484375	0.193397827148438	9.01425476074219	0.967789343504428	0.200772327108445	-0.151902137136803	-0.251363005362356	0.736634135850046	-0.62784296558587	-0.0141571937357983	0.645802309199894	0.76337340227284
306	9.141516	3.88891296386719	0.532891845703125	8.19635559082031	0.967611474834154	0.195131840343125	-0.16016116462357	-0.25242000395294	0.739094249200115	-0.624518880742381	-0.0034893228098155	0.644719517064299	0.764411256420721
307	9.141516	4.11524230957031	0.2730322265625	8.02451293945312	0.967739677676843	0.189815254628741	-0.165680672862429	-0.251902266649329	0.742021933313522	-0.621247694996605	0.00501640377676575	0.642941381147528	0.765898959459574
308	9.141516	4.0954833984375	0.135318603515625	7.58323059082031	0.968251296584244	0.18253906395824	-0.170789100331902	-0.249553157668662	0.745685672168777	-0.617799400954549	0.0145824607158903	0.640806030286428	0.767564318730372
309	9.141516	4.8139892578125	0.298778686523438	7.95805114746094	0.968267167192562	0.177422296867154	-0.176011424377153	-0.248916461223587	0.747611476017589	-0.615725325334868	0.0223447593143739	0.639998757421595	0.768050976322533
310	9.141516	5.28940063476563	0.394579467773437	7.7838134765625	0.967873490965283	0.172229119034291	-0.183188525959867	-0.249452047035064	0.749117279937238	-0.613674976782865	0.0315369896580663	0.639656494890895	0.768013663177421
311	9.141516	5.01816467285156	0.153880004882813	7.3958203125	0.967660247206278	0.166877429906908	-0.189170741300949	-0.249125228947448	0.749997819373413	-0.612731500118124	0.0396265855022469	0.640043119112135	0.767316453230767
312	9.141516	5.62230834960938	0.374221801757812	7.43114685058594	0.967011260112452	0.161790287205128	-0.196756513950136	-0.24989375807569	0.752364299088317	-0.609508876992086	0.04941996044653	0.638570171886714	0.76797513181485
313	9.141516	5.82887878417969	0.516725463867188	7.10183166503906	0.965988206011019	0.156272436778416	-0.206023569891771	-0.251448784104706	0.753564554194194	-0.607382887176097	0.0603348557624703	0.638529081691227	0.767228986036555
314	9.141516	6.02347412109375	0.322130126953125	6.99704956054688	0.965379686254516	0.149320634587917	-0.213881765125958	-0.250845617077078	0.756320726027572	-0.604198175911139	0.0715439568402094	0.636931948851202	0.767593091925831
315	9.141516	5.84384765625	-0.111967163085938	7.25930419921875	0.964817426967205	0.143342924978302	-0.220409025402885	-0.250034903958207	0.759457565674292	-0.600588671840129	0.0813011649547203	0.634568366528576	0.768578628884685
316	9.141516	6.97489562988281	0.331710205078125	6.56594604492188	0.963948620597116	0.136657192094761	-0.228315283539435	-0.249422087080509	0.762952120716105	-0.596399768587482	0.0926913120271799	0.631845608787126	0.769531966412771
317	9.141516	6.88627990722656	0.013172607421875	6.54918090820312	0.962257915601957	0.130458204425469	-0.238831239077848	-0.250841990990268	0.765527968000401	-0.592490696775246	0.10553672070619	0.630037766413459	0.769359742562167
318	9.141516	7.42216552734375	0.0928070068359375	5.95102478027344	0.960567465703823	0.123164502078038	-0.249280262474197	-0.25120971260837	0.768712100475545	-0.588196724637001	0.119179797459786	0.627624260214935	0.769339953380233
319	9.141516	7.05512878417969	0.0736468505859375	5.25287658691406	0.958389216719665	0.117336610670685	-0.260234949750765	-0.253207995236809	0.770372951267732	-0.58515914681666	0.13181737527209	0.626703786290909	0.768027697303304
320	9.141516	7.81375122070312	-0.0125738525390625	5.33789978027344	0.956523728544555	0.111151462772272	-0.269643670526137	-0.253603816231564	0.773577494279195	-0.580743458626535	0.144039790072086	0.623877562241428	0.768133664284858
321	9.141516	8.31431030273438	0.367036743164063	4.68825073242188	0.954405722825409	0.104879694799777	-0.279481602000585	-0.254422442047192	0.77550125628814	-0.577812272696124	0.156137558648941	0.622573731468187	0.766826585131819
322	9.141516	8.35742065429688	-0.0556842041015625	4.95529541015625	0.952614842994883	0.0983229680401315	-0.287849882511031	-0.25389927387613	0.778161703142024	-0.574455849033046	0.167511550739073	0.620320044588987	0.766252518854005
323	9.141516	8.72026611328125	0.157472534179688	4.55173461914063	0.950092062847436	0.0915664636777946	-0.298229198509882	-0.254542155192854	0.780229752333669	-0.571357878044155	0.180370073305082	0.618754487905248	0.764597619897573
324	9.141516	8.38316711425781	-0.491577758789063	4.8139892578125	0.948091451308663	0.0850608754907973	-0.306410259972105	-0.253703601739394	0.783261553999838	-0.567570101829032	0.191721366623267	0.61584574812732	0.764183833965106
325	9.141516	9.33458862304687	0.3305126953125	3.32967590332031	0.945354635999909	0.077453884975787	-0.316710448036747	-0.253387780871544	0.785820779941906	-0.564163393279366	0.205181004721378	0.613585036904952	0.76250518541704
326	9.141516	9.10406799316406	0.110769653320313	3.14406188964844	0.942267250308527	0.0710715065985416	-0.327232745833638	-0.254155945213351	0.788059611277428	-0.56068422894351	0.218030237601845	0.611482534520066	0.760626008934877
327	9.141516	9.46212341308594	0.290994873046875	2.63392272949219	0.939386160077825	0.0638110279977828	-0.336870590821021	-0.253714185335527	0.790238960048677	-0.557809553683616	0.230613864313851	0.609467422203231	0.758529305207901
328	9.141516	9.58247314453125	-0.0029937744140625	2.8021728515625	0.937241761387806	0.0561731954859551	-0.344125635225827	-0.251736933331314	0.791897086653265	-0.556351975413961	0.241260019704111	0.608065437481007	0.756339888299833
329	9.141516	9.25555297851563	0.08861572265625	1.9591259765625	0.935112361008453	0.0479616012258986	-0.351090525501679	-0.249273255482842	0.793226897597996	-0.555566317398783	0.251848598150126	0.607034409020532	0.753711821504022
330	9.141516	9.44356201171875	0.404159545898438	1.34719848632812	0.934035671155982	0.0400666106876772	-0.354925388942799	-0.245624397527765	0.793485862612337	-0.556820295224122	0.259318376416554	0.607268352989317	0.750985437349038
331	9.141516	9.94771362304687	0.230520629882813	2.07049438476563	0.933670409152442	0.0320130605675777	-0.356699777160301	-0.239949183514434	0.795307693928508	-0.556695663095084	0.265864545217801	0.605360087824772	0.750236767737304
332	9.141516	10.0069903564453	0.829874267578125	1.36037109375	0.934667465744914	0.0232153283329191	-0.354764396477967	-0.231601416483241	0.796841512526649	-0.558036188608946	0.269736004939899	0.603742206943193	0.750158540039654
333	9.141516	9.95609619140625	0.436492309570313	1.75375305175781	0.935480486927291	0.0141466067721757	-0.353095075149899	-0.223246969727731	0.798209150951743	-0.559484532265445	0.273928912467569	0.602214268224967	0.749867272295974
334	9.141516	9.74054443359375	0.191002807617188	2.13336364746094	0.936086545662493	0.00526109266758705	-0.351730436461795	-0.215115893228886	0.799698332681972	-0.560542352713881	0.278329178330264	0.600378961664729	0.74971859446087
335	9.141516	9.52499267578125	0.0916094970703125	2.22078186035156	0.936675853197894	-0.00323831034591412	-0.350182608623131	-0.207257961151944	0.800901074318902	-0.561784306201204	0.282280859385005	0.598787927818299	0.749513531514896
336	9.141516	9.78724731445313	0.19878662109375	2.22078186035156	0.936557816970683	-0.0111429338381394	-0.350335968031528	-0.20083779313585	0.802093868739187	-0.562414088176432	0.287269274931083	0.597094013331639	0.748969360470831
337	9.141516	9.43697570800781	0.272433471679688	1.7196240234375	0.936811407336055	-0.0198442024591885	-0.349271520043933	-0.193093029814186	0.803200354144126	-0.563546158659545	0.291718132659282	0.595378366025765	0.748615476961485
338	9.141516	9.9105908203125	0.288001098632813	2.07708068847656	0.936415419642835	-0.0277684193476399	-0.349792905505625	-0.186869080753526	0.80427809850276	-0.564106981810293	0.29699513213766	0.593603954801279	0.747949354121531
339	9.141516	9.57828186035156	0.21315673828125	1.963916015625	0.936043610543152	-0.0354482463255983	-0.350093960236076	-0.180904424723848	0.804887904945808	-0.565180546009222	0.301821053401967	0.592367185371023	0.746997436018986
340	9.141516	9.80640747070313	0.292791137695313	2.02498901367187	0.935791417255392	-0.043197153037364	-0.349897741291099	-0.174585695178212	0.805452117768526	-0.566362711538584	0.306291133450328	0.59108450491589	0.746193573825218
341	9.141516	9.67647766113281	0.449664916992188	1.89925048828125	0.935366951321528	-0.0505791895135578	-0.350043442966188	-0.168944898531679	0.805607300727468	-0.567850771131575	0.310718984993824	0.590286898552522	0.744993348803634
342	9.141516	9.64474365234375	0.451461181640625	2.31478637695312	0.934329685860273	-0.0564037288400662	-0.351918538149358	-0.165401594789058	0.806012789712953	-0.568318304526943	0.315706114228852	0.58920455038304	0.743752409909669
343	9.141516	9.71659423828125	0.685574340820313	1.73459289550781	0.9334629691221	-0.0624300718959046	-0.353198770384081	-0.161598096418658	0.805924156073434	-0.569536925836412	0.320207652175304	0.588717878767408	0.742211774837872
344	9.141516	9.65312622070313	0.3065625	2.34113159179687	0.932446481394965	-0.0681584437174971	-0.354821061782074	-0.157950405263371	0.806337723628109	-0.56997468797428	0.324954194943359	0.587515022790268	0.741101119405756
345	9.141516	10.1057849121094	0.994531860351563	1.71782775878906	0.931793424080859	-0.0747036277513706	-0.355218781654987	-0.153509609481497	0.805678622890267	-0.572116034047711	0.328931322066639	0.587623454789228	0.739258318008708
346	9.141516	9.53038146972656	0.756227416992188	1.96690979003906	0.931216251979499	-0.0799514430327939	-0.355589733831321	-0.149777769813199	0.805505002956258	-0.573348332065442	0.33226933611009	0.587170722166402	0.738124400972862
347	9.141516	10.0806372070313	1.56334899902344	1.57712036132813	0.930161587867363	-0.0851857790278785	-0.357131353296624	-0.147108937318259	0.804744497399869	-0.575104559593927	0.33639022134592	0.587477384208146	0.736010830101566
348	9.141516	9.73036560058594	1.53820129394531	1.55975646972656	0.929911146369465	-0.0890994948738931	-0.356828445994773	-0.144584094416856	0.803533294783042	-0.577433705127062	0.338172588332474	0.588553756413402	0.734332197518391
349	9.141516	9.83993774414063	2.25012084960938	1.58610168457031	0.92921182233112	-0.0922964096251812	-0.357836222328568	-0.143678741244714	0.801895971372561	-0.579930401350707	0.340472918973615	0.59029164306024	0.731870184922728
350	9.141516	9.53816528320313	2.55069580078125	0.916693725585938	0.928766961973906	-0.0951820373066468	-0.358234992874674	-0.142939760652213	0.799742769821685	-0.583077805222106	0.341994378857971	0.592749425889302	0.729169365056881
351	9.141516	9.79024108886719	2.48662902832031	1.87230651855469	0.927870607273075	-0.0955975306451824	-0.360440353308615	-0.14491781309485	0.798164275998986	-0.584750045717674	0.343591274054656	0.594806607775636	0.726739386396485
352	9.141516	8.72086486816406	2.67224304199219	1.28253295898438	0.927640018123189	-0.0968239232564847	-0.360706424480675	-0.145611645496139	0.795616648791508	-0.588040302072636	0.343920405722483	0.598012772481486	0.723947151715296
353	9.141516	9.3645263671875	3.09676025390625	1.55197265625	0.927909501526216	-0.0976551576006071	-0.359788030889536	-0.146128007308694	0.792582219791149	-0.591996647246355	0.342973122062589	0.601894421858964	0.721174418901353
354	9.141516	8.98311950683594	4.03500915527344	0.69695068359375	0.927703313766456	-0.0976810367350818	-0.360312332135741	-0.148755196650716	0.788505187745176	-0.596767509477814	0.3424010121132	0.607221527913253	0.716968313764668
355	9.141516	8.42747497558594	3.83322875976563	1.31306945800781	0.928784496387651	-0.0962913926270096	-0.357892898750295	-0.150281978499281	0.784861863695652	-0.601171507853232	0.338784129215463	0.612143629079106	0.714496669810001
356	9.141516	8.46160400390625	5.21515502929688	0.47181884765625	0.928559564816759	-0.0943329480868939	-0.358996419888203	-0.155544183806778	0.779263015920006	-0.607087439256605	0.337020980758164	0.619556653522899	0.708919185524212
357	9.141516	9.47349975585938	4.99720825195313	2.27826232910156	0.927794507434819	-0.0928674748842371	-0.361348839879704	-0.159764222473575	0.776340720859949	-0.609729840463848	0.337153889479562	0.623434613446576	0.705447756793883
358	9.141516	8.32329162597656	5.9252783203125	0.78556640625	0.926792209284327	-0.0888046155517872	-0.364924569009233	-0.167995455990349	0.770999302199461	-0.614278115168154	0.335907319920942	0.630613840844493	0.699637374758443
359	9.141516	8.10474609375	6.09233093261719	0.97716796875	0.925398499333475	-0.0863157862645613	-0.369035502997859	-0.174551454648371	0.767232326188064	-0.617159904183826	0.336406609791618	0.635534533045674	0.694929097242969
360	9.141516	8.16821411132813	6.69348083496094	0.8861572265625	0.924577350107507	-0.0823872929803887	-0.371979915618499	-0.182121500918451	0.761997571639254	-0.621443046239228	0.334646802721007	0.642317705478562	0.68952119812038
361	9.141516	6.99285827636719	7.10003540039063	0.578397216796875	0.923088101683281	-0.0775005466138281	-0.376698847629395	-0.191471325067715	0.756855588044313	-0.624906673450453	0.3335372366132	0.648970942431674	0.683805255662587
362	9.141516	7.35390747070313	7.65567993164063	0.193397827148438	0.921748306388978	-0.0745872692351319	-0.380548024481927	-0.198499068943427	0.752270552695384	-0.628241303303097	0.333133875938254	0.654618785871157	0.678598604395065
363	9.141516	5.6330859375	7.635322265625	-0.235310668945313	0.921172307183891	-0.0705185731749347	-0.382712308810258	-0.205719078463491	0.746557356853019	-0.63271776779601	0.330335043907907	0.661573309441973	0.673200946969295
364	9.141516	6.48032409667969	8.34963684082031	0.571810913085938	0.919853973631329	-0.0674860960829033	-0.38641207800759	-0.213031567694213	0.741210432119344	-0.636572577545719	0.329372461448132	0.667871785714103	0.66742869243587
365	9.141516	5.88516174316406	9.01185974121094	-0.206570434570313	0.919065437840184	-0.0639721929868971	-0.388878232216819	-0.219806300710191	0.735804970885455	-0.640528090709811	0.3271145229667	0.674165115787447	0.662191426643057
366	9.141516	5.81271240234375	8.79151794433594	0.170645141601563	0.917617815188288	-0.0635206779019242	-0.39235528380277	-0.224449212078481	0.731873192852201	-0.643416024654091	0.328024536348154	0.678473841104582	0.657322714114136
367	9.141516	4.87925354003906	9.10047546386719	-0.756227416992188	0.916676855114608	-0.063620419468723	-0.39453261655257	-0.227988989055925	0.727567048702087	-0.647044983376112	0.328214204699387	0.683080252876307	0.652439118971258
368	9.141516	4.45054504394531	8.02151916503906	0.501756591796875	0.915401482125134	-0.0640767178486256	-0.397409487497286	-0.23134017776073	0.724189529317652	-0.649639321300913	0.3294265451914	0.686617579047045	0.648100649179457
369	9.141516	3.97034362792969	8.80469055175781	-0.422122192382813	0.914576749065493	-0.0641461086634033	-0.399292683143754	-0.234329514707045	0.720646715188153	-0.652501333658167	0.329604381958062	0.690328609165134	0.644055403488066
370	9.141516	4.48766784667969	8.99269958496094	-0.17244140625	0.913402497566152	-0.0655390032491828	-0.401746831341605	-0.236957533060434	0.716883273505165	-0.655690094247605	0.330978858789848	0.694105907784701	0.63927301195385
371	9.141516	3.6835400390625	9.44236450195313	-1.025068359375	0.912836156773911	-0.0667323549782273	-0.402836125099645	-0.23846266261741	0.71371570385826	-0.658593541270733	0.331459966547473	0.697249372079436	0.635592325088323
372	9.141516	4.1338037109375	9.28728698730469	-0.476010131835938	0.911421306239764	-0.0687055836061184	-0.405697849776832	-0.240982596439716	0.710052873571863	-0.661628524888032	0.333524497968853	0.70078845560817	0.630600467602857
373	9.141516	3.37877380371094	9.26752807617188	-0.636476440429688	0.910772562937911	-0.0698270360324192	-0.406961329414031	-0.242452281886715	0.707358331705433	-0.66397370548451	0.33423080290038	0.703397736423592	0.627312836459397
374	9.141516	3.6068994140625	9.38727905273438	-0.0748443603515625	0.90990679101045	-0.0723204152779032	-0.408459776730949	-0.243452442625293	0.704157380773662	-0.667003216845133	0.335857916168197	0.706351286992533	0.623111000955005
375	9.141516	2.97820678710938	9.273515625	-0.256865844726562	0.909289725288873	-0.073105727377861	-0.409692260249861	-0.244668135501265	0.702437054013634	-0.668370921434335	0.336644766711767	0.70798145298673	0.620832153864777
376	9.141516	3.53325256347656	9.70641540527344	-0.461041259765625	0.908272862891656	-0.0749286893699423	-0.411614015849676	-0.246127072146936	0.699882892227637	-0.670511298580013	0.338322140704642	0.710316569338193	0.617242659278057
377	9.141516	3.01952087402344	9.79383361816406	-0.492176513671875	0.907061134069263	-0.0757298586307562	-0.414131727319639	-0.248645419437322	0.697429972340029	-0.672136064405582	0.339728648267732	0.712640457870273	0.613781739181468
378	9.141516	2.81953674316406	9.6998291015625	-0.904119873046875	0.905773751158512	-0.0769359223692999	-0.416719060712878	-0.251601675771884	0.693650529667981	-0.674941137759515	0.340984616164745	0.716191180161076	0.608933235255284
379	9.141516	2.3519091796875	9.41302551269531	-0.622705078125	0.904682051119841	-0.0780280025799336	-0.418881865440586	-0.253819517302347	0.690935138034851	-0.67689311391472	0.342236817157364	0.7186934435781	0.605271587917234
380	9.141516	2.51357299804688	9.76748840332031	-0.569415893554688	0.90371621014532	-0.0790036843087738	-0.42077954962928	-0.25664380474702	0.686699753906997	-0.680130432688498	0.342682023172435	0.722635361610342	0.600305892978519
381	9.141516	2.3040087890625	9.90879455566406	-0.837059326171875	0.902681895725073	-0.0811472711363221	-0.422587879046854	-0.258458022887827	0.68293458475976	-0.683227490184587	0.344041924095168	0.725958313766116	0.595499522366519
382	9.141516	1.88128784179688	9.77287719726563	-0.768202514648438	0.901811884006777	-0.0829628274532902	-0.424090196921721	-0.260614022955765	0.678415129562665	-0.686901188686761	0.344696470685385	0.729979507411975	0.590181549911221
383	9.141516	1.983076171875	9.86867797851563	-0.745449829101563	0.900260749879496	-0.0839206555072897	-0.427186031847525	-0.264710231669111	0.673499191799984	-0.690164713597019	0.345628522370613	0.734408716059386	0.58411023129193
384	9.141516	1.65914978027344	9.93873229980469	-0.933458862304688	0.898988366428118	-0.0850240794913175	-0.429640341371196	-0.26826342521249	0.668526647455533	-0.693618667810439	0.346200305777113	0.738811902684655	0.578188827919836
385	9.141516	1.484912109375	9.7764697265625	-0.890348510742188	0.897685423973582	-0.08670402795501	-0.432022327110241	-0.271091130627881	0.664266727424818	-0.696605565389209	0.347376565819096	0.742450083421572	0.572797865871576
386	9.141516	1.24241638183594	10.1961968994141	-1.3747412109375	0.896279679503573	-0.0878705842177236	-0.434697016941926	-0.274410672712975	0.660129795369934	-0.699233463133782	0.348398505751942	0.745994245081076	0.567548295298056
387	9.141516	0.892144775390625	9.66210754394531	-1.20948486328125	0.894956626022551	-0.0892561208092209	-0.437133826689748	-0.277475458439683	0.655891778349753	-0.702006655991869	0.349370873860459	0.749559417252087	0.562228309947739
388	9.141516	0.958606567382813	10.0806372070313	-1.40707397460938	0.893509719452085	-0.0923464541627804	-0.439445689076841	-0.279069921493533	0.652490586377175	-0.704539575614291	0.351795906971999	0.752149032501361	0.557235563065582
389	9.141516	0.516126708984375	9.59983703613281	-1.28732299804688	0.89262577172784	-0.0953305949271607	-0.440603346921142	-0.280132475346897	0.648462767592479	-0.707828959072969	0.353192621530092	0.75525367706297	0.55212938282577
390	9.141516	0.794547729492188	9.99142272949219	-1.48790588378906	0.890963910322897	-0.0970185984522081	-0.443588437694789	-0.283127865914287	0.64504920169386	-0.709753576205809	0.35499566482558	0.757957069330766	0.547246890358056
391	9.141516	0.354462890625	10.1752404785156	-1.70106262207031	0.889405943739909	-0.0985386447141124	-0.446371149087874	-0.28609049152664	0.641609174476795	-0.711681036620516	0.35652390929385	0.760675885463127	0.542460044037088
392	9.141516	0.392783203125	9.98184265136719	-1.2789404296875	0.888370432413221	-0.10173986586838	-0.447713049292771	-0.286111692857647	0.639973062659132	-0.713144149720673	0.359079481485755	0.761632115107927	0.539424181152594
393	9.141516	-0.051492919921875	10.2908001708984	-1.91781188964844	0.88759300923235	-0.104969316360526	-0.448508743041499	-0.286360631760484	0.636923064304673	-0.715769934220823	0.360799443652008	0.763747636840566	0.535269379547208
394	9.141516	0.417332153320313	9.8243701171875	-1.17236206054687	0.886214071117224	-0.108251697270644	-0.450451096337728	-0.287158080684702	0.63464713986194	-0.717470030428127	0.363544848473079	0.76518270883697	0.531347875920853
395	9.141516	-0.123343505859375	10.1093774414063	-1.82620239257812	0.885627192247421	-0.111762858271848	-0.450747756359204	-0.286690692370799	0.631996682787224	-0.719992110966431	0.36533946304759	0.766869778030699	0.527672076467237
396	9.141516	0.23710693359375	9.94232482910156	-1.41425903320313	0.884425010981971	-0.115179802522249	-0.452245522963442	-0.287197205706384	0.629499535182105	-0.721975138242279	0.367845300342394	0.768416520056961	0.523665815878376
397	9.141516	-0.00718505859375	10.0369281005859	-1.44060424804688	0.883806835841307	-0.119290346650934	-0.452388428362263	-0.286073478315544	0.627329019176532	-0.724306749039009	0.370199192225785	0.769563587297964	0.520311871073941
398	9.141516	-0.130528564453125	9.9393310546875	-1.3460009765625	0.882574916091136	-0.122984084381133	-0.453802195318246	-0.286279456301596	0.625076872104599	-0.726170074334927	0.37296861850079	0.77081373816822	0.516469351137845
399	9.141516	-0.0940045166015625	10.2147583007813	-1.77470947265625	0.881585944307489	-0.127572943336811	-0.454457222329952	-0.285524230072152	0.622546647220399	-0.728636799836753	0.375875161245297	0.772114509747759	0.512403207440976
400	9.141516	-0.187410278320313	9.9872314453125	-1.47353576660156	0.880379529980364	-0.131852222226486	-0.455573127703437	-0.285289793642631	0.620125672298592	-0.730789904281364	0.378868864958445	0.773342836037264	0.508329854636675
401	9.141516	-0.36643798828125	9.92735595703125	-1.70166137695313	0.879592995848485	-0.13659991227461	-0.455693565481077	-0.284022199317791	0.617649421913497	-0.733376153078765	0.381637985463938	0.774499616253289	0.504482697894126
402	9.141516	0.032332763671875	9.68486022949219	-1.27115661621094	0.878863864671477	-0.141666256110387	-0.455553486710816	-0.281717715172966	0.61651477742288	-0.735217422383978	0.385010956120003	0.774493512625434	0.501922665924422
403	9.141516	-0.3784130859375	10.1321301269531	-1.62561950683594	0.878080822569753	-0.145789962608112	-0.455762389670266	-0.280027694453093	0.615775007333344	-0.736481928279918	0.38801876162695	0.774316748589585	0.499874997853606
404	9.141516	0.0017962646484375	10.1656604003906	-1.63519958496094	0.876935708275863	-0.150812345586052	-0.456332554141763	-0.279160502101688	0.613059259539073	-0.739072228107469	0.39122011402412	0.775508852762003	0.495512705862037
405	9.141516	0.0784368896484375	10.317744140625	-1.70944519042969	0.875786501527834	-0.15562529198162	-0.456923157913092	-0.277918133043443	0.611388536460561	-0.740922107114007	0.394663800046677	0.775876811085529	0.492194736819145
406	9.141516	-0.329315185546875	9.723779296875	-1.446591796875	0.874905605151652	-0.160198005422951	-0.457030394101673	-0.276550368855405	0.60944669566897	-0.743030698305335	0.397567699342089	0.776473646814032	0.488905512592318
407	9.141516	0.373024291992188	10.0608782958984	-1.21487365722656	0.873536665797498	-0.165409474046722	-0.457791873456681	-0.275126272864996	0.608065397294779	-0.744689201339833	0.401546046533654	0.77646389388582	0.485658927648678
408	9.141516	0.2347119140625	10.2171533203125	-1.42683288574219	0.872552821254182	-0.17025880149151	-0.457890286680165	-0.273734027905936	0.605937379121154	-0.746933447202747	0.404624833750675	0.777079039157834	0.482106742136819
409	9.141516	0.281414794921875	10.1752404785156	-1.48610961914063	0.871202148490692	-0.175843750120433	-0.458351166692947	-0.272221680926957	0.603925301954005	-0.749112532329467	0.408536623693036	0.77740157267872	0.478272539351934
410	9.141516	0.0089813232421875	9.90280700683594	-1.40946899414063	0.869940333687024	-0.181525286358713	-0.458532862766559	-0.270208046292828	0.602351310514979	-0.751106191187039	0.412542637242651	0.777316839604852	0.474960107086484
411	9.141516	0.368234252929688	9.89681945800781	-1.19212097167969	0.868532026504082	-0.186904885824421	-0.459041046739475	-0.268722486929228	0.600648259502371	-0.753000593210486	0.416461695663939	0.777359782862306	0.471456704303782
412	9.141516	-0.0113763427734375	9.8052099609375	-1.44719055175781	0.867574571862565	-0.192233929370324	-0.458650715312134	-0.266497229493467	0.598952314734363	-0.755139292678281	0.419873301044247	0.777368793477841	0.468405988429923
413	9.141516	0.513132934570313	10.1411114501953	-1.33881591796875	0.866584753452944	-0.198648761735259	-0.457787652240588	-0.263488708812347	0.596917455767189	-0.757801591004419	0.423797788351124	0.777321182305921	0.464937860500973
414	9.141516	0.87418212890625	10.8422534179688	-1.88428161621094	0.864726513822422	-0.207910473466208	-0.45718846367289	-0.25883321962448	0.595621326775988	-0.760421330256088	0.430410758126869	0.775892047976179	0.461235416220377
415	9.141516	0.869990844726563	10.0728533935547	-1.1927197265625	0.862605823573888	-0.216174591074797	-0.457361716052032	-0.255990916859875	0.593264459232973	-0.763220762228236	0.436325387321957	0.775439119199343	0.45641464568273
416	9.141516	0.643062744140625	9.69683532714844	-1.254990234375	0.860871196777454	-0.224042139199908	-0.456843411270956	-0.251727647325318	0.592742665256614	-0.765042040907914	0.442192236624543	0.773602774456772	0.453877487017994
417	9.141516	0.788560180664063	9.76629089355469	-1.609453125	0.858812068290536	-0.231822572159375	-0.45683708955813	-0.249292499362341	0.589929846723629	-0.768007829195975	0.447543384623446	0.773460452112483	0.448847243388821
418	9.141516	1.17236206054687	9.49685119628906	-0.722697143554688	0.857214143129567	-0.238855921930398	-0.456214600136189	-0.245015984227012	0.59003902898457	-0.769299104216439	0.452936066450787	0.771233941702339	0.447266281843782
419	9.141516	1.74537048339844	10.4333038330078	-1.56574401855469	0.855242449251039	-0.247374828764853	-0.455374622802637	-0.240309146992699	0.589218560175209	-0.771409749884388	0.459142534373287	0.76917305103508	0.44447829046047
420	9.141516	2.25012084960938	10.0489031982422	-0.925076293945313	0.852650714794974	-0.255755900443153	-0.455604738724405	-0.236190814324586	0.589139932233633	-0.772740602968707	0.466047913618664	0.766487481721824	0.441923389939283
421	9.141516	1.63460083007813	9.68605773925781	-1.28732299804688	0.850308583963331	-0.264442390014667	-0.455022564716966	-0.232170289243795	0.587432477229189	-0.77525482358308	0.472305270805575	0.764848551714462	0.438103211708797
422	9.141516	2.64170654296875	9.74713073730469	-0.91250244140625	0.847212703865319	-0.272634440460953	-0.45596172677513	-0.229026603418286	0.586985618432962	-0.776527332860574	0.479351071069939	0.762311186870176	0.434861133049029
423	9.141516	2.28065734863281	9.85071533203125	-1.1735595703125	0.844238348183295	-0.282611647138506	-0.455403412765433	-0.224314450139711	0.585379274057252	-0.779111117211611	0.486769595306919	0.759909048772197	0.430805755159879
424	9.141516	3.21531372070313	9.953701171875	-0.9340576171875	0.840946971851958	-0.291646454351779	-0.455796595201257	-0.219953287829049	0.585362934809359	-0.780365802508392	0.494397352042074	0.756500218252057	0.428110590943947
425	9.141516	2.38184692382813	9.07053771972656	-0.225730590820313	0.838132372055732	-0.299743293146593	-0.455728082441568	-0.215176787886929	0.58604236861385	-0.7811871044405	0.501231560126551	0.752800305793711	0.426683281521551
426	9.141516	3.7218603515625	10.0722546386719	-1.35019226074219	0.835451841531293	-0.309408930297764	-0.454187554138117	-0.209294419227727	0.585038384343877	-0.783534258934754	0.508149649770715	0.749664059893696	0.424013833196041
427	9.141516	3.83622253417969	9.53337524414063	-0.193397827148438	0.83177431563634	-0.318010797688224	-0.45499518722883	-0.204826833487049	0.58598548808968	-0.784006999989138	0.515943268326439	0.745312109321993	0.422270533623451
428	9.141516	4.0763232421875	9.66510131835938	-0.585582275390625	0.828175779748933	-0.328922336992789	-0.453800588435547	-0.197511849584355	0.586457903455237	-0.785529246271999	0.524513057140634	0.740187289611278	0.420724172334911
429	9.141516	4.531376953125	9.36213134765625	0.0221539306640625	0.823508497047816	-0.338908197097128	-0.454945039790987	-0.192953211064584	0.586802494153342	-0.786404406902253	0.533481783784521	0.735393817485429	0.417843415138128
430	9.141516	4.70022583007812	9.17172729492188	-0.4742138671875	0.81929979048359	-0.349145528402718	-0.454802433271781	-0.187954938330567	0.585839440304154	-0.78833057237511	0.541683297204833	0.731361436076925	0.414354504438891
431	9.141516	5.74445434570312	8.79570922851562	0.666414184570313	0.814268802790956	-0.359923211058467	-0.455435614486556	-0.182736834484933	0.585750611570298	-0.789622359338595	0.550975104813104	0.726189715698581	0.411187220970939
432	9.141516	5.21994506835938	8.68733459472656	-0.393381958007813	0.809503789630918	-0.370217755197913	-0.455677987519039	-0.177564378645528	0.585406556378607	-0.791056290781616	0.559619965699412	0.721275243915358	0.408151340198008
433	9.141516	5.71691162109375	8.05804321289063	0.711919555664063	0.804621050678705	-0.380093110511587	-0.456195344283921	-0.17305273276697	0.584822406615792	-0.792486911186549	0.568012074243657	0.716597502131943	0.404784267791719
434	9.141516	5.61272827148438	8.286767578125	-0.276624755859375	0.799728372499918	-0.389382884365131	-0.456963345994102	-0.169558910453444	0.583667097960248	-0.794092245677102	0.575920399104316	0.712540306314074	0.400751800711328
435	9.141516	6.43421997070313	7.35510498046875	1.14122680664063	0.7933667541743	-0.399425176075088	-0.459378626068216	-0.16524507810371	0.58498985534197	-0.794028295030776	0.585886727562108	0.705865708094937	0.398108458340436
436	9.141516	6.85634216308594	7.59879821777344	0.382005615234375	0.788296010535721	-0.409268803221684	-0.459443627100167	-0.161611352838674	0.582764673260149	-0.796408881312637	0.593692824958429	0.702057250022733	0.393248582048807
437	9.141516	6.88687866210938	7.20002746582031	1.03524719238281	0.782187016945659	-0.41890697086236	-0.461194557952036	-0.156743638556837	0.584113979232176	-0.796393301728183	0.603004894087615	0.695217814090285	0.391225368142085
438	9.141516	6.97729064941406	7.443720703125	-0.123343505859375	0.777452649370681	-0.428580315501478	-0.460311080847683	-0.152896600429035	0.581135971131501	-0.799314464171825	0.610073772230665	0.691809147252117	0.38627722714981
439	9.141516	7.69519775390625	6.67851196289063	1.57053405761719	0.771936653513361	-0.437658041297949	-0.461052320078574	-0.148834120559658	0.580682538001859	-0.800410016564606	0.618030911459796	0.686486146216341	0.383111685456357
440	9.141516	7.0078271484375	6.5479833984375	0.578995971679688	0.766672123994617	-0.447755692521889	-0.460139863632599	-0.142451468574034	0.580192179030033	-0.80192556667903	0.626036287598957	0.680361576815318	0.381033714259894
441	9.141516	8.26640991210938	6.48391662597656	1.0585986328125	0.760668514990748	-0.45661316567595	-0.461397688803443	-0.140073019762566	0.578580311360372	-0.803507543487136	0.633847741525019	0.67583225747039	0.376148641265804
442	9.141516	7.92990966796875	6.18693420410156	0.295784912109375	0.75554681712287	-0.466145608665538	-0.460279565761218	-0.135734792155461	0.575972721189821	-0.806121262989451	0.640878360794007	0.671538305658752	0.37190217893817
443	9.141516	8.14845520019531	5.52111877441406	1.28432922363281	0.750276415475724	-0.475312693123058	-0.459524911334528	-0.1314075980532	0.573982642507788	-0.808254891277291	0.647933132008843	0.666799647462327	0.368185940238528
444	9.141516	7.97182250976563	5.48998352050781	0.723894653320313	0.745579396362995	-0.482737704693173	-0.459429724970598	-0.129010822537063	0.571807671363167	-0.810180346983647	0.653810042280862	0.663325180765663	0.36404963009856
445	9.141516	8.420888671875	4.81518676757813	1.9112255859375	0.741544602965886	-0.490793056505421	-0.457420788222654	-0.125324928852833	0.568463572144178	-0.813106899093294	0.659094275517698	0.66028126039677	0.360032489018218
446	9.141516	8.39633972167969	5.14390319824219	1.24600891113281	0.735984067451756	-0.498358387657863	-0.458220874588037	-0.124194553319307	0.565966281620868	-0.815020172139357	0.665509703447657	0.656750398187397	0.354648768639774
447	9.141516	8.74481506347656	4.95948669433594	0.88376220703125	0.731202501224525	-0.506742049285616	-0.456678659112525	-0.121977198379092	0.561545205274143	-0.818406100606055	0.671166495944625	0.654124971178623	0.348792283174354
448	9.141516	9.43458068847656	4.40982971191406	2.19264038085938	0.725349146433049	-0.515024374437362	-0.456747752599016	-0.118885849621115	0.559816762113395	-0.820043503490358	0.678037440359095	0.649118699924967	0.344833500227295
449	9.141516	8.1670166015625	4.65951049804687	0.708327026367188	0.721936116847506	-0.521998268586851	-0.454231274554576	-0.1165118975685	0.555367757253875	-0.823402472626715	0.682080069285221	0.647367331424077	0.340121033293646
450	9.141516	9.38248901367188	4.17871032714844	1.51305358886719	0.716426660329696	-0.529150744844254	-0.454678270428233	-0.116594878138853	0.551739799485513	-0.825826148808254	0.687850619510242	0.644657027336596	0.333584835304183
451	9.141516	8.74242004394531	4.454736328125	0.450263671875	0.711950715292881	-0.537573118113421	-0.451820010264895	-0.113672466541738	0.546698784145676	-0.829577609246993	0.692968072384488	0.641977867294079	0.328115328139776
452	9.141516	9.82377136230469	3.57277038574219	2.31119384765625	0.705521274671247	-0.546423939008152	-0.451287724035427	-0.109066305436786	0.545488119478531	-0.830991728313914	0.700245865396312	0.635502628150815	0.32525703314268
453	9.141516	8.62566284179688	3.39434143066406	1.34300720214844	0.700199097461262	-0.556748644088738	-0.446936428611258	-0.102414134393711	0.541206716768873	-0.834629639301556	0.706563917130518	0.630179527618606	0.321933524162317
454	9.141516	9.23220153808594	2.92372009277344	2.11180847167969	0.695324760283147	-0.565104580378109	-0.444049874420504	-0.0965187946569561	0.538834079289056	-0.836864360141286	0.712185088312829	0.624751669251388	0.320121464060833
455	9.141516	8.83043701171875	2.91473876953125	1.06518493652344	0.690789080452304	-0.574138105337816	-0.43951778385745	-0.0898975013777155	0.534947641645446	-0.840088959541797	0.71744608548232	0.619835830439866	0.317922408346781
456	9.141516	10.1369201660156	3.03149597167969	1.39030883789062	0.685222752392402	-0.584117275707643	-0.43505952216181	-0.083454964010681	0.530432764708369	-0.843609122227714	0.723536487390759	0.61436804144073	0.314717112770381
457	9.141516	9.65671875	2.76265502929688	1.38192626953125	0.679856985732535	-0.592532128022486	-0.43208813477324	-0.0790498359058383	0.526556244563601	-0.846457113357988	0.729071740224467	0.609626277790108	0.311143373758538
458	9.141516	9.67947143554688	2.45309875488281	1.84715881347656	0.675093051870097	-0.600721076794535	-0.428233066462101	-0.0739262349554977	0.522464695034903	-0.849450148170798	0.734019266165422	0.60511555122712	0.308303237999659
459	9.141516	9.41901306152344	2.06510559082031	1.63100830078125	0.669628736882809	-0.608782051322667	-0.425419520859233	-0.0694742575112312	0.518947806925922	-0.851977993395393	0.739439437874393	0.600064652911786	0.305207683458102
460	9.141516	9.16274597167969	2.08187072753906	1.45796813964844	0.664187587023201	-0.61839263381372	-0.420054043772022	-0.0625822161253394	0.513928637025947	-0.855547089451828	0.744941820190771	0.594531669879396	0.302644639868738
461	9.141516	9.39745788574219	1.63220581054688	1.82919616699219	0.658261628339167	-0.62723749944165	-0.416250823363096	-0.0562470107282585	0.510417997506275	-0.858084926802598	0.750684955517562	0.588257245697724	0.300708347811837
462	9.141516	9.46332092285156	1.24241638183594	2.08725952148438	0.653408368890214	-0.635052875581017	-0.412025907778275	-0.0512187969443493	0.505949222312981	-0.861041241335433	0.755270903917134	0.583715024354497	0.298064811809488
463	9.141516	9.6231884765625	1.31606323242188	2.04414916992188	0.648383310091334	-0.642774576698556	-0.407970497395334	-0.044769326363186	0.502757735391037	-0.863267262741651	0.759996572763319	0.577992649654361	0.297203139844687
464	9.141516	8.70589599609375	1.063388671875	1.85434387207031	0.646006774174343	-0.647527310521026	-0.404207409445035	-0.0410857099516959	0.499267167913849	-0.865473430834852	0.762225171559313	0.575708847572009	0.295925853329317
465	9.141516	9.94651611328125	1.12625793457031	2.21359680175781	0.643012667003335	-0.653130644411424	-0.39994383531188	-0.0360098031190691	0.495857014563892	-0.867657256747795	0.765008499398918	0.572316505474463	0.295323235470754
466	9.141516	8.97952697753906	0.734073486328125	2.7973828125	0.642325602927134	-0.658577401904367	-0.392037785838543	-0.0249862119659447	0.493244905106795	-0.869531570903427	0.766024483313612	0.568317929760344	0.300368476503496
467	9.141516	10.739267578125	1.52682495117188	1.86392395019531	0.639552380440804	-0.666334127657786	-0.383368729803356	-0.0146457967919392	0.48804091609345	-0.872697865733035	0.768607997166846	0.563750737948256	0.302368735410867
468	9.141516	8.23946594238281	0.553848266601562	3.95118347167969	0.641570272945198	-0.672349622277855	-0.369233761045561	0.00725547633249723	0.486657229344945	-0.873562876494583	0.767029949178136	0.557773006292996	0.317103028233191
469	9.141516	10.3734283447266	1.91541687011719	1.36695739746094	0.638705081373121	-0.680302325996839	-0.359506000327456	0.0171333312174948	0.479682037908565	-0.877275094522396	0.769260858220114	0.554160525255252	0.31803120013495
470	9.141516	9.16633850097656	0.794547729492188	4.37869445800781	0.636744322374892	-0.684932453852662	-0.354152794119588	0.0251851429143091	0.477526530022748	-0.878256296135029	0.770663594897103	0.550305321420578	0.321312428512296
471	9.141516	9.35853881835938	1.11009155273438	3.65719482421875	0.63373041397134	-0.691547982845119	-0.346622488927883	0.0329275938091965	0.47180076849913	-0.881090125021026	0.772852855318301	0.546960165155085	0.321765507411643
472	9.141516	8.37238952636719	0.6849755859375	4.06614440917969	0.631657940476518	-0.69616128711324	-0.34112711495541	0.039574404133115	0.46840511391783	-0.882627053626351	0.774236470834637	0.544018484594469	0.323421977684054
473	9.141516	8.70649475097656	1.01668579101563	4.04399047851563	0.629802367447416	-0.701700147956647	-0.333115415907533	0.0495242861969154	0.464257252839085	-0.88431473371362	0.775175027354671	0.540446209667461	0.327141515894513
474	9.141516	8.24245971679688	0.8047265625	4.95170288085937	0.627798037321805	-0.705818092802305	-0.328162222395888	0.0547582937793366	0.460602135407312	-0.885916024305126	0.776447779053599	0.53820673790946	0.327814511075382
475	9.141516	8.31131652832031	0.863404541015625	4.54814208984375	0.626010885448014	-0.71120139041066	-0.319848329022582	0.0671494369300245	0.457798690130405	-0.886516391520691	0.776917836338293	0.53349127602317	0.334343736275402
476	9.141516	8.35502563476563	0.910706176757813	4.86069213867188	0.624049049514467	-0.715935495210885	-0.313048160028511	0.0760250356943263	0.45436281842023	-0.887566686612844	0.777677939604671	0.530085649621239	0.337973706548102
477	9.141516	8.14486267089844	0.746647338867188	5.07744140625	0.622490800637133	-0.720945181646743	-0.304537761505014	0.0900831944636076	0.45253995648259	-0.887182397177698	0.777425379825853	0.524829146339149	0.346647004827026
478	9.141516	7.96822998046875	0.955014038085938	4.73555236816406	0.620622054073522	-0.726768821471381	-0.294338828792029	0.104121528639695	0.448440691916314	-0.887727240264346	0.777165988236294	0.520296094518033	0.353984464006524
479	9.141516	7.81614624023438	0.542471923828125	5.95880859375	0.619271790439494	-0.731213049523043	-0.286059304643416	0.117917886097042	0.446803232367819	-0.886827065263613	0.776271744754547	0.515455476014058	0.362915734768902
480	9.141516	7.16649719238281	0.662222900390625	5.99413513183594	0.617829770026325	-0.736052776348479	-0.276609265388769	0.132194033259836	0.444003526367519	-0.88621984075268	0.775120063499659	0.510966905976213	0.371620381784127
481	9.141516	7.00603088378906	0.4358935546875	6.38751708984375	0.615097821701253	-0.741278896859587	-0.268626630863375	0.144900948691553	0.441177931613897	-0.885644255739951	0.775021538285654	0.505833598851952	0.378779600118354
482	9.141516	6.29650634765625	0.3065625	6.46415771484375	0.612831241959742	-0.746156318960933	-0.260170360634626	0.156250255896251	0.437160076129173	-0.885707020052958	0.77461198442216	0.502137247685736	0.384492468165707
483	9.141516	6.41026977539063	0.255069580078125	7.48503479003906	0.610712333936524	-0.75036510765419	-0.252947920317444	0.168399875932838	0.435203927589237	-0.884442775535369	0.773738926876249	0.497543713281575	0.392145797389661
484	9.141516	5.949228515625	0.267643432617188	7.18146606445312	0.608044107393028	-0.755169251837934	-0.244952576110461	0.180364619751683	0.431874134771342	-0.883715641853948	0.773143561964042	0.493157310392982	0.398804337739089
485	9.141516	5.93425964355469	0.0592767333984375	7.68501892089844	0.606334086119867	-0.758372159617065	-0.239229269795597	0.189846320386846	0.430187745077897	-0.882551346166539	0.772215870495265	0.489704167332221	0.404811657258899
486	9.141516	5.96479614257813	0.369431762695313	7.12039306640625	0.604055754476704	-0.76227955144637	-0.23247909783527	0.19969337191838	0.427185095668326	-0.8818364084402	0.771517467524519	0.486253822078104	0.41026578923789
487	9.141516	5.58578430175781	0.372425537109375	7.26469299316406	0.601085206992804	-0.766519319492204	-0.226151955064789	0.210994320179582	0.425145262099316	-0.880189129089004	0.770829404464032	0.481351886835101	0.417279750591751
488	9.141516	5.17204467773437	0.0844244384765625	7.76525207519531	0.598225870398805	-0.77082723040382	-0.218977598976628	0.221674516007401	0.42179508811193	-0.879175359412179	0.770055982989858	0.477403691347926	0.423201486940792
489	9.141516	4.818779296875	0.202379150390625	7.86763916015625	0.596153818853354	-0.774449854061775	-0.211726351242017	0.235794746769043	0.420968853655905	-0.875891580989197	0.767464306442121	0.472242149532767	0.433573396949105
490	9.141516	4.45593383789063	-0.0616717529296875	7.83291137695313	0.593471186560484	-0.778321874917016	-0.204956116640009	0.245635971550927	0.417652561720997	-0.87477386058805	0.766456078456375	0.468808486179111	0.439048611299166
491	9.141516	4.24816589355469	-0.0185614013671875	8.46519653320312	0.5906011708347	-0.782757997116892	-0.196163643314028	0.261223729870454	0.415449529139297	-0.871300092786926	0.763513208766718	0.463348256376873	0.449839941925194
492	9.141516	3.61288696289063	-0.231119384765625	8.75439514160156	0.588371690957272	-0.786112689991124	-0.189329321329264	0.271537622458334	0.412641799912701	-0.869479191559224	0.761633818097487	0.460166908414464	0.456245924398803
493	9.141516	3.56798034667969	0.21076171875	8.41190734863281	0.584981865987926	-0.790851816171471	-0.179860004791422	0.286130744608506	0.408742257340002	-0.866636581304056	0.758897498648577	0.455503207368384	0.465393827443004
494	9.141516	2.73331604003906	-0.143701171875	9.340576171875	0.582765485580406	-0.79432242528658	-0.17157002507163	0.300031076321214	0.406520167912743	-0.862973178216872	0.755225623279406	0.451434643959723	0.475227335256707
495	9.141516	2.50159790039063	-0.1101708984375	8.38795715332031	0.580293530267041	-0.79766276273486	-0.164297095763757	0.309493132263739	0.402593752095724	-0.861470993043333	0.75330831656885	0.449057220986009	0.480493696596041
496	9.141516	2.49860412597656	0.259859619140625	8.92504028320313	0.577763701611843	-0.800664144698887	-0.158511931706673	0.318542063659948	0.399997813813012	-0.859379254243476	0.751478581716767	0.446025421179567	0.486149426496162
497	9.141516	1.67711242675781	0.0047900390625	7.95326110839844	0.575882563545979	-0.803742526124635	-0.149523324944645	0.327719726780065	0.394514709279564	-0.858462535490781	0.74897199792977	0.445371862448506	0.490596423199597
498	9.141516	1.8154248046875	0.0760418701171875	10.1991906738281	0.573724430909226	-0.806811537858246	-0.141051124620461	0.339737809475787	0.391122481303091	-0.855337024471586	0.745264045953163	0.4428073474979	0.498500907533172
499	9.141516	0.911304931640625	-0.0688568115234375	8.52327575683594	0.570866580039901	-0.810203342659255	-0.132973273018745	0.350543909985892	0.386966824440077	-0.852863203541205	0.742448863535631	0.440258129199829	0.504918275276422
500	9.141516	0.916094970703125	-0.220341796875	10.1003961181641	0.566825910964754	-0.813908561746553	-0.127519566242341	0.360408586435244	0.384173137334051	-0.850009794869837	0.740819841447789	0.435848429693821	0.511098922764178
501	9.141516	1.32145202636719	0.714314575195312	8.40951232910156	0.564986669776241	-0.815658312930331	-0.124465173935518	0.36343596677189	0.38144132053461	-0.849951067441764	0.740745814049418	0.434975902247997	0.511948828919265
502	9.141516	1.03584594726562	0.0688568115234375	9.33219360351563	0.561907578112515	-0.818274389033651	-0.121189512381781	0.368212224678611	0.378614319296461	-0.849158969110558	0.740729121377685	0.432525399803622	0.514044888378204
503	9.141516	0.959804077148438	0.432899780273438	9.22741149902344	0.55950016643748	-0.820205891955704	-0.11925543407988	0.372379804775348	0.377303008246559	-0.847924360402253	0.740467990362788	0.430005505510389	0.516529205833367
504	9.141516	1.22505249023438	0.176033935546875	9.1729248046875	0.556104077937868	-0.822932879208222	-0.116317371097099	0.377193820545436	0.37460976390691	-0.846990169085773	0.740589681431771	0.427140493401966	0.51872721410498
505	9.141516	0.910706176757813	0.044307861328125	9.474697265625	0.553223729735249	-0.825231697886285	-0.113737195593789	0.383298307252249	0.373389970230808	-0.84478537971996	0.739612001332713	0.423760044051768	0.522878104867533
506	9.141516	1.09931396484375	0.0808319091796875	9.10107421875	0.550332580545762	-0.827612557921447	-0.110415147332976	0.388115327140769	0.370656096821675	-0.84378939951112	0.73925675081683	0.421510986641679	0.525193244922383
507	9.141516	1.16038696289063	0.1868115234375	9.08730285644531	0.547286956378245	-0.829993755997334	-0.107644565044758	0.392848834790195	0.368321499671358	-0.842620356912784	0.739017442542612	0.418867088567818	0.527639632450498
508	9.141516	1.33582214355469	0.357456665039063	9.21423889160156	0.544479827755475	-0.832272600296911	-0.104230686279936	0.397320212893636	0.365355949080629	-0.841814515732266	0.738700457285309	0.416938064065169	0.529607670960367
509	9.141516	0.623902587890625	0.04550537109375	9.43517944335938	0.542684733415191	-0.833864322335643	-0.10081454286859	0.400987606964654	0.36267135140915	-0.841236250959159	0.738039442834083	0.416100688298855	0.531185464803373
510	9.141516	1.97229858398438	0.537681884765625	8.24425598144531	0.540459303400686	-0.836144166903023	-0.0936305159747374	0.404165784660669	0.355608912630823	-0.842729090376706	0.737938859172812	0.417618526183375	0.530133008509331
511	9.141516	1.38372253417969	0.6849755859375	8.90767639160156	0.5397232395507	-0.837427342289247	-0.0861061616568023	0.405872895653901	0.348459457361638	-0.844892418683438	0.737540519064828	0.421059916118362	0.527960727493989
512	9.141516	1.6525634765625	0.6658154296875	8.63883544921875	0.54117702874414	-0.837357684719562	-0.0771980012743794	0.402886983553025	0.338768561058281	-0.850245811822703	0.73811212023866	0.429031432274602	0.520694275057057
513	9.141516	2.15132629394531	2.17707275390625	8.97533569335937	0.540150945408873	-0.838633266904607	-0.070222502196989	0.409032869155937	0.334541097901863	-0.848984314204143	0.735478801954184	0.429856368401728	0.523731261641422
514	9.141516	1.94355834960938	2.12917236328125	8.75559265136719	0.538467738727695	-0.840125950981786	-0.0651220457021521	0.413532243541698	0.330801389326552	-0.848269723832575	0.734195871617958	0.429835814360057	0.525545045445749
515	9.141516	1.94894714355469	2.79079650878906	7.94607604980469	0.536612690967013	-0.841870634129403	-0.0574513296947747	0.417648975609577	0.324137539627368	-0.84882518139873	0.73322312638474	0.431495875756505	0.525542725322799
516	9.141516	1.60286682128906	2.80516662597656	8.84121459960938	0.534963339608481	-0.843322074467625	-0.051206483872288	0.421418451728815	0.318876293083083	-0.848954885875616	0.732270929245064	0.43258038377302	0.525978609600577
517	9.141516	1.89984924316406	3.06981628417969	8.440048828125	0.532372674577142	-0.845386020749189	-0.0436097613549039	0.426863484691375	0.312586839162622	-0.848573528587509	0.731004036104259	0.433141944290981	0.527277114328994
518	9.141516	1.88428161621094	3.19435729980469	8.25383605957031	0.528621343870232	-0.848112054912531	-0.0355727018494988	0.433913624343432	0.305997610041432	-0.847398624767635	0.729574150730395	0.432517519831249	0.529764243437633
519	9.141516	1.73459289550781	3.44284057617188	7.87901550292969	0.524908113344048	-0.85075082113519	-0.0263536123404861	0.441592414486181	0.298667719816262	-0.846045940010364	0.727645251488565	0.432458822869364	0.532458218556712
