// Start Time: Unknown
// Update Rate: 100.0Hz
// Filter Profile: human (46.1)
// Option Flags: AHS Disabled ICC Disabled 
// Firmware Version: 4.0.2
PacketCounter	SampleTimeFine	Acc_X	Acc_Y	Acc_Z	Mat[1][1]	Mat[2][1]	Mat[3][1]	Mat[1][2]	Mat[2][2]	Mat[3][2]	Mat[1][3]	Mat[2][3]	Mat[3][3]
1	0.0001	-9.33458862304687	3.94639343261719	-4.36731811523437	0.475317144072428	0.838211326289588	-0.267348807797381	0.236243973897137	-0.414304929936846	-0.878942665836239	-0.847503626746293	0.354616972957973	-0.394948610760951
2	0.0001	-9.43757446289063	3.97213989257813	-4.16853149414063	0.472320494286342	0.839291729808375	-0.26926333384323	0.234483516439697	-0.414121309920198	-0.879500438424026	-0.849665128856763	0.352268268433654	-0.392398057920239
3	0.0001	-9.02084106445313	3.76796447753906	-4.25475219726563	0.468371251976002	0.840575642632991	-0.272141432594462	0.232875652141101	-0.414572117778798	-0.879715232220211	-0.852289446703577	0.348658211107291	-0.389923262790481
4	0.0001	-9.01245849609375	3.04706359863281	-4.11524230957031	0.463450131137404	0.842222700208324	-0.275453987450758	0.231340452721369	-0.41507139479572	-0.87988484028139	-0.855392056827392	0.344059094453459	-0.387205073107869
5	0.0001	-8.8280419921875	2.97880554199219	-3.73563171386719	0.458535990167545	0.843706658944822	-0.279112556817559	0.229708438842265	-0.4159297527246	-0.879907082550824	-0.858474681540299	0.339354555665043	-0.384525300472755
6	0.0001	-8.80528930664063	3.07221130371094	-3.34045349121094	0.452972468407773	0.845644525806182	-0.282314149200153	0.227693516726707	-0.415897272376909	-0.880445978621103	-0.861958006694754	0.334536686782608	-0.380937790054126
7	0.0001	-8.56219482421875	2.60817626953125	-2.91893005371094	0.447363360371652	0.847517969934177	-0.285620927867052	0.225564937607087	-0.41595765470199	-0.880965202727742	-0.865440051487852	0.329685486689166	-0.377254552188881
8	0.0001	-8.97832946777344	2.634521484375	-2.87701721191406	0.442617281392682	0.84910849496403	-0.288278868445939	0.22326101720591	-0.415712791866528	-0.881667393564443	-0.868472486846149	0.325879791423857	-0.373574492079973
9	0.0001	-9.01245849609375	2.63751525878906	-2.84109191894531	0.438019554319286	0.850673607266522	-0.290677284860889	0.220724669443704	-0.415218701876049	-0.882538412711502	-0.871446779977356	0.322409434589829	-0.369638561509165
10	0.0001	-8.12390625	2.20581298828125	-2.44172241210938	0.432784436192172	0.852375518040808	-0.293519348654376	0.218746776536613	-0.415152616339757	-0.883061805821708	-0.874555589739535	0.317968994386118	-0.366125987966459
11	0.0001	-8.36280944824219	1.79806091308594	-2.519560546875	0.42762684676678	0.853963072744946	-0.296449574653618	0.217514982661848	-0.415518772981444	-0.883193852796549	-0.877395299874531	0.313195178264298	-0.363436745624431
12	0.0001	-8.87414611816406	1.38072875976563	-2.61895385742188	0.423226099161253	0.855622633929132	-0.297975799851136	0.217484467041575	-0.415207920505858	-0.883347547313538	-0.879534067324507	0.309050628631258	-0.361811461065336
13	0.0001	-9.48128356933594	1.90224426269531	-2.50279541015625	0.419374983618604	0.857014950678712	-0.299416094136673	0.216740591328281	-0.414806369038087	-0.883718955480817	-0.881560059885634	0.305714001181831	-0.359709341407522
14	0.0001	-9.30165710449219	1.45557312011719	-2.24533081054688	0.414747337931979	0.858862164574727	-0.300566844379668	0.216176337432309	-0.413861330349095	-0.88430005675451	-0.883884854951531	0.301785654900448	-0.357313562132224
15	0.0001	-9.41122924804688	1.40168518066406	-2.10522216796875	0.409407401486352	0.860819126150478	-0.302284653367848	0.215571180861821	-0.41321438739462	-0.884750211094594	-0.88651827143609	0.297059425205826	-0.354740824132706
16	0.0001	-9.29926208496094	0.96998291015625	-2.01720520019531	0.403609041633719	0.862689619770733	-0.304739825837286	0.215394374378302	-0.413305033432629	-0.88475093265022	-0.889215949585752	0.291454231877119	-0.352632139379307
17	0.0001	-9.69683532714844	0.762813720703125	-1.79686340332031	0.398341302011721	0.864140012704872	-0.307548769391182	0.214099159063242	-0.413634305799056	-0.884911414297808	-0.891900082520469	0.286650832038835	-0.349779277961722
18	0.0001	-9.64174987792969	0.760418701171875	-1.63100830078125	0.392693183799286	0.865738997766168	-0.310303160061918	0.212261250535663	-0.413616854118686	-0.885362219382552	-0.894839217356178	0.281810371945025	-0.346187361620249
19	0.0001	-9.64773742675781	0.520916748046875	-1.59747802734375	0.387060493567034	0.867181292786126	-0.313338123696157	0.210627864023317	-0.4139965634645	-0.885574812388292	-0.897674817078333	0.27677328426235	-0.342894257610146
20	0.0001	-9.48667236328125	0.121547241210938	-1.63579833984375	0.380940725914399	0.868624654669208	-0.316820726343163	0.208815303228499	-0.414628987057342	-0.885708175546209	-0.900711014963957	0.27124529930047	-0.339331187971276
21	0.0001	-9.48667236328125	-0.0916094970703125	-1.18254089355469	0.374722909905912	0.869941165487441	-0.320601168715898	0.207367367131776	-0.415678387575325	-0.885556465253127	-0.903649000353833	0.265356075289659	-0.336161624023902
22	0.0001	-9.45254333496094	-0.068258056640625	-1.33761840820313	0.369220693268055	0.871117212683832	-0.323775974137379	0.206559546963908	-0.416601397583738	-0.885311487042465	-0.906095598279079	0.259996302468376	-0.333755433636743
23	0.0001	-9.56211547851563	0.187410278320313	-1.1735595703125	0.364506667809491	0.871957807634874	-0.326840130380291	0.204140339971521	-0.417274366735841	-0.885555658590421	-0.908549179031456	0.256069686940465	-0.330101052272603
24	0.0001	-9.12442565917969	0.190404052734375	-0.478405151367188	0.360428154676234	0.872939163884131	-0.328738135107504	0.202118303964789	-0.417140421278991	-0.88608242288039	-0.910626013530847	0.252925058253349	-0.326786135551155
25	0.0001	-9.378896484375	0.106578369140625	-0.434696044921875	0.356762265763819	0.874331487623552	-0.329036678011817	0.200823238000529	-0.415757966909526	-0.887026121391158	-0.912354488565738	0.250379237759931	-0.323912834714383
26	0.0001	-9.38727905273438	0.281414794921875	-0.690364379882813	0.35381781834374	0.875306299495096	-0.329623775669592	0.199441650622594	-0.414920786812397	-0.887729558293468	-0.913803030975172	0.248353825690652	-0.321378900747087
27	0.0001	-9.436376953125	-0.0808319091796875	-0.667012939453125	0.349664791068685	0.877082252043278	-0.329334567025061	0.198936361016062	-0.413017699158401	-0.888729826464482	-0.915510162779518	0.245240908766445	-0.318901299017154
28	0.0001	-9.40224792480469	-0.239501953125	-0.671802978515625	0.346125073160031	0.878555101548841	-0.32914794131586	0.198185926207277	-0.411385581384449	-0.889654001329923	-0.917016778681463	0.242699066688532	-0.316508120978259
29	0.0001	-9.49026489257812	-0.255069580078125	-0.75922119140625	0.343259370531482	0.879893390177671	-0.328573624114864	0.197811187759534	-0.409707665352159	-0.890511292993439	-0.918174133015897	0.240680807031488	-0.314688751923513
30	0.0001	-9.59205322265625	-0.152682495117188	-0.839454345703125	0.339444140890417	0.881569060349024	-0.328045221045065	0.197455759969041	-0.407763426349457	-0.891482030658386	-0.919667819416454	0.237833933590415	-0.312483794720134
31	0.0001	-9.72138427734375	-0.186212768554688	-0.740659790039063	0.335638107068835	0.883417897206639	-0.326986054715258	0.197292311333183	-0.405349082410035	-0.892618544103893	-0.92109869447962	0.235084963969078	-0.310342157535191
32	0.0001	-9.45853088378906	-0.413140869140625	-0.841849365234375	0.332592600025535	0.88496424528065	-0.325914784848899	0.197287267595986	-0.403232651875104	-0.89357773165309	-0.922203825871898	0.232898503723448	-0.308704373973895
33	0.0001	-9.50283874511719	-0.077838134765625	-0.793948974609375	0.32971980185679	0.886702220414138	-0.324104959197104	0.197414793182831	-0.400470167841484	-0.894791061701889	-0.923207588625711	0.231047218078147	-0.307091079848064
34	0.0001	-9.580078125	-0.18441650390625	-0.879570922851563	0.326441826888407	0.888156868850682	-0.323439499707615	0.196738696433668	-0.398535335902843	-0.895803254829089	-0.924515883575475	0.228794585491354	-0.304833427738
35	0.0001	-9.733359375	-0.0580792236328125	-0.882564697265625	0.322905281050443	0.889687618660717	-0.322781846874258	0.195424415242084	-0.396379498342263	-0.897046593673498	-0.92603535429109	0.226581628769321	-0.301859715939734
36	0.0001	-8.82624572753906	-0.51492919921875	-0.770597534179688	0.32072604472956	0.890488990043308	-0.322744733254909	0.194453738472865	-0.395391881120616	-0.897693156895956	-0.926996519856498	0.225154655638187	-0.299971387332843
37	0.0001	-10.0087866210938	0.0161663818359375	-0.553848266601562	0.319505738267381	0.89133864624412	-0.321607681696061	0.192887989746744	-0.393468822913841	-0.898875135269775	-0.92774474217086	0.225161504495098	-0.297644066407897
38	0.0001	-9.570498046875	0.029937744140625	-0.31853759765625	0.317288055311655	0.893092075620561	-0.318927631948545	0.192646835994972	-0.389993156127279	-0.900440189437927	-0.928555591517102	0.224258517424962	-0.295791532712963
39	0.0001	-9.38668029785156	-0.316741333007813	-0.688568115234375	0.315187871330008	0.894481939642416	-0.317109863328151	0.192652312972164	-0.387489462917459	-0.901519274577319	-0.929269439975798	0.223055992480543	-0.294455993563701
40	0.0001	-9.99920654296875	-0.162861328125	-1.54658386230469	0.313817592187605	0.895903045693072	-0.314445943766892	0.193128250868228	-0.384482151869672	-0.902704244816787	-0.929634335397608	0.222556077453625	-0.293681451301071
41	0.0001	-9.41063049316406	-0.434097290039062	-1.0346484375	0.311820478836564	0.897261416607756	-0.31255389814427	0.193853085809937	-0.382114529517507	-0.903553798870648	-0.930155347294258	0.22115704058125	-0.293088029952166
42	0.0001	-9.50762878417969	-0.18441650390625	-0.867595825195313	0.309222561316415	0.898323264250076	-0.312084476512376	0.194166078081396	-0.380893539800975	-0.904002016292205	-0.930957003139997	0.218941600078586	-0.292204781034848
43	0.0001	-9.7381494140625	0.505947875976563	-0.338296508789063	0.307114431980554	0.898759434456787	-0.31290925944142	0.193581330681251	-0.380922452768616	-0.904115232361682	-0.931776257521588	0.217093445206569	-0.290969829995147
44	0.0001	-10.0884210205078	1.10709777832031	-0.866398315429688	0.305504919464547	0.899770675555435	-0.311575794299681	0.192645841649449	-0.378859640531374	-0.905181171076605	-0.932498967226311	0.216513519640125	-0.289080563052774
45	0.0001	-9.75671081542969	-0.01197509765625	-0.879570922851563	0.303356617751602	0.900217858882072	-0.312382088180623	0.192190981508019	-0.378897255292938	-0.905262114836616	-0.93329383855959	0.21458023320254	-0.287954743710623
46	0.0001	-9.44056823730469	-0.211959228515625	-0.763412475585938	0.300938132141455	0.900758905355101	-0.313160717598318	0.19172508325237	-0.37882532413402	-0.905391001858659	-0.934172218102789	0.212425912304116	-0.286701061572293
47	0.0001	-9.57109680175781	-0.0700543212890625	-0.870589599609375	0.298499454781778	0.901715032682475	-0.312742826183793	0.191840474627795	-0.377681016579118	-0.905844513153525	-0.934930643304392	0.210397361081855	-0.285723017379117
48	0.0001	-9.65911376953125	-0.01197509765625	-0.780177612304688	0.297037536593081	0.902808417205298	-0.310975342556251	0.191941395065401	-0.375480352769308	-0.906737561560446	-0.935375434098556	0.209646050541144	-0.284818066100868
49	0.0001	-9.46152465820312	-0.290994873046875	-1.04722229003906	0.295715919742093	0.903491150559153	-0.310251246044857	0.192285681342317	-0.374426418771675	-0.907100365823176	-0.935723416166235	0.208587146744751	-0.284452264274825
50	0.0001	-9.74473571777344	-0.339494018554688	-1.03225341796875	0.29211772742685	0.904521548092742	-0.31065737132552	0.192105651850691	-0.373700066293098	-0.907437975279609	-0.936889882456841	0.20539968229879	-0.282928115714155
51	0.0001	-9.38488403320313	-0.09580078125	-0.925675048828125	0.292160443479294	0.905303651666634	-0.308330299427482	0.202920125303198	-0.373736000446498	-0.905066199080039	-0.934593867951699	0.201858119106746	-0.292895206068263
52	0.0001	-9.18789367675781	-0.551453247070313	-1.27115661621094	0.290355616428477	0.905529578248659	-0.309370003273177	0.202393727823825	-0.374097884788154	-0.905034558199081	-0.935270225627874	0.200167318795641	-0.291894928938735
53	0.0001	-9.58546691894531	-0.105979614257813	-1.14661560058594	0.288043965134134	0.905748179613368	-0.310887293527538	0.203046555230762	-0.375031835277867	-0.904501641201959	-0.935843347232179	0.197411645186362	-0.291934704661995
54	0.0001	-9.70162536621094	-0.09819580078125	-1.33282836914063	0.285922852778512	0.906649446309167	-0.310217510412096	0.202511387367911	-0.373591879928021	-0.905217236489767	-0.936609449154407	0.195999716222063	-0.290425293312325
55	0.0001	-9.61121337890625	-0.211959228515625	-1.44778930664063	0.281610382004059	0.907932618688571	-0.310409330834049	0.201247081963213	-0.372194207338562	-0.906074546615736	-0.938187190676157	0.192691027152106	-0.287532543038603
56	0.0001	-9.48966613769531	-0.472417602539063	-0.745449829101563	0.277606065045174	0.909287898069803	-0.310049013986392	0.19855124317224	-0.370070177100243	-0.907538135758357	-0.939953337397603	0.190377473574985	-0.283273968218601
57	0.0001	-9.73994567871094	-0.463436279296875	-0.554447021484375	0.271592657104888	0.909620905238509	-0.314367996716879	0.189836326249445	-0.370861500031594	-0.909078608828978	-0.943503893920328	0.187220609301947	-0.273402351141658
58	0.0001	-9.80880249023438	-0.323926391601563	0.410745849609375	0.265039396460477	0.910852124284309	-0.316389832343943	0.175144746104254	-0.3681425242043	-0.913123978320887	-0.948197466900193	0.18659981125191	-0.25710323647284
59	0.0001	-9.8243701171875	-0.277822265625	-0.244890747070313	0.264237725478389	0.911153685496206	-0.316192007869725	0.17525525290955	-0.367748160807023	-0.913261674740959	-0.948400770118634	0.185903877392948	-0.256857407151615
60	0.0001	-9.80640747070313	-0.35206787109375	-0.425714721679688	0.260718164889439	0.912128844289787	-0.316302086479461	0.176105240110825	-0.367069854708493	-0.913371045178133	-0.949217036774094	0.182429967874971	-0.256332448041494
61	0.0001	-9.49565368652344	-0.473016357421875	-0.213755493164063	0.260287460888191	0.912003949138051	-0.317016142271932	0.176942452857709	-0.36782863025269	-0.91290386522521	-0.949179543648659	0.181523815305401	-0.257113395986858
62	0.0001	-9.83933898925781	-0.374820556640625	-1.02806213378906	0.258085565817182	0.912341064120131	-0.317845282231737	0.177988971163569	-0.368259891435935	-0.912526480987663	-0.949585049830166	0.178936958395241	-0.257429209802035
63	0.0001	-9.51720886230469	-0.412542114257813	-1.22265747070313	0.257450342539644	0.911768796521285	-0.319995285615817	0.179174489775411	-0.370459433543649	-0.911403483816163	-0.949534529830243	0.177306147069545	-0.258740616972697
64	0.0001	-9.57169555664063	-0.212557983398438	-1.05680236816406	0.256579963288939	0.911725371651841	-0.320817033720094	0.179149126151044	-0.371039117179492	-0.911172631350383	-0.94977487492456	0.176314549056442	-0.258536006685837
65	0.0001	-9.59265197753906	-0.24189697265625	-1.35617980957031	0.256028351645799	0.91147129092253	-0.32197759080028	0.179467381272899	-0.372107609149668	-0.910674138356836	-0.94986364401033	0.175373923480476	-0.258849463492744
66	0.0001	-9.49445617675781	-0.188009033203125	-1.20289855957031	0.255104603061632	0.911506788257698	-0.322609696780653	0.179730948631572	-0.372536120375787	-0.910446937014647	-0.950062328271553	0.174276257635669	-0.258861658852258
67	0.0001	-9.52080139160156	-0.105380859375	-1.29869934082031	0.254024742996204	0.911333182176783	-0.323949472926337	0.180338644343106	-0.373690964988673	-0.909853304682862	-0.95023649861611	0.172704643103111	-0.259275341959901
68	0.0001	-9.6040283203125	-0.149688720703125	-1.31486572265625	0.253017756300152	0.910537190134431	-0.326961833214417	0.181035877580875	-0.376548880500196	-0.908535608340461	-0.95037257221858	0.170683818729673	-0.260113452167504
69	0.0001	-9.53816528320313	-0.305364990234375	-1.66274230957031	0.252068592640811	0.909233835773028	-0.331293308851154	0.182910704144309	-0.380942416067074	-0.906325851970699	-0.950265804348191	0.167859189579975	-0.262332219828293
70	0.0001	-9.47589477539062	-0.204175415039063	-1.69447631835938	0.249313605992659	0.910127579358747	-0.330923730121496	0.183063271097462	-0.379844695311068	-0.906755670629712	-0.950962967019239	0.165486545479171	-0.261311382498612
71	0.0001	-9.55912170410156	-0.188009033203125	-1.58610168457031	0.245562276000778	0.911918995669455	-0.3287900757969	0.182266981038862	-0.376560679686307	-0.908284538092093	-0.952091338175229	0.16311284391917	-0.258681819848832
72	0.0001	-9.31961975097656	-0.49576904296875	-1.37054992675781	0.241585420021853	0.913921639050475	-0.326165176725166	0.180608205263113	-0.372596215992474	-0.910248722064319	-0.953423914648936	0.160994712656605	-0.255075560319124
73	0.0001	-9.96447875976563	-0.772393798828125	-1.45677062988281	0.230012602194562	0.916175244639669	-0.32820287009886	0.178634674469995	-0.371261998256706	-0.911182847581887	-0.956652421681295	0.150955124987132	-0.249055604898653
74	0.0001	-9.67528015136719	-1.70285888671875	-1.38492004394531	0.227246766667123	0.916730916168392	-0.328577744803873	0.178496279897729	-0.37089900729372	-0.911357780704815	-0.957339012629283	0.148453203837417	-0.247918658370838
75	0.0001	-9.61720092773438	-0.413739624023438	-1.14841186523438	0.224931317256368	0.917526235201883	-0.327950469177243	0.177795985134767	-0.369573615599909	-0.912032855944548	-0.958015913326743	0.146836474925918	-0.246261161054799
76	0.0001	-9.87286926269531	-0.881965942382813	-1.26277404785156	0.222674383481211	0.919004605005289	-0.325340828855427	0.176484213280239	-0.366205438073162	-0.913644843245174	-0.958785399035737	0.146027781961916	-0.243734374865683
77	0.0001	-9.50283874511719	-0.82149169921875	-0.842448120117188	0.220805371976623	0.920030105864672	-0.323712205529705	0.173622741434124	-0.363681779028375	-0.915199818214392	-0.959739616439357	0.145877235734013	-0.240041039681632
78	0.0001	-9.09568542480469	-1.27774291992188	-0.895138549804688	0.218960025668807	0.920202855655771	-0.324473745628334	0.17421775533551	-0.364069997891486	-0.914932352887988	-0.96005451974613	0.143804523844902	-0.240032452049237
79	0.0001	-9.4699072265625	-0.5748046875	-0.883163452148438	0.217282923364373	0.920702286655545	-0.324184254030765	0.175152811796186	-0.363504470460442	-0.914978684164371	-0.960265392344284	0.142027459677784	-0.240246908332559
80	0.0001	-9.66450256347656	-0.7807763671875	-1.293310546875	0.214195628537262	0.922488303081576	-0.321147261226375	0.172120853163495	-0.359278651716222	-0.91722040008236	-0.96150644543955	0.141188459509437	-0.235735390384123
81	0.0001	-10.0004040527344	-1.06518493652344	-0.940045166015625	0.210462012789326	0.923513758647145	-0.320668175474414	0.171924822636559	-0.357867602660582	-0.917808604409087	-0.962365625183097	0.138033027045671	-0.234092475125869
82	0.0001	-9.87346801757812	-0.49097900390625	-1.10530151367188	0.208785708834645	0.923801244113354	-0.320935802242497	0.170848480849192	-0.357576163607342	-0.918123131073049	-0.962922283664647	0.136859594455323	-0.232486831944491
83	0.0001	-9.37530395507813	-0.724493408203125	-0.990340576171875	0.207043438934843	0.923776697491219	-0.322132934619004	0.17097375901277	-0.358365809630513	-0.917791871949687	-0.963276174377358	0.134946506661284	-0.232138864081046
84	0.0001	-9.94651611328125	-0.13651611328125	-1.01249450683594	0.205153645145666	0.923632829595581	-0.323750487222345	0.170641050355085	-0.359474882340256	-0.917419991552491	-0.963739391027035	0.132966932203908	-0.231357258635042
85	0.0001	-9.4699072265625	-0.756227416992188	-0.832269287109375	0.201899225446066	0.92398736770124	-0.324783076980333	0.17019247922489	-0.359666105794986	-0.917428369060798	-0.964505688308557	0.129952440034052	-0.229872009060764
86	0.0001	-9.70641540527344	-1.05380859375	-1.00950073242187	0.20047904862914	0.922699175985319	-0.32929376200707	0.168345674830188	-0.363563085780549	-0.916232293920976	-0.965125838855599	0.12825019802612	-0.228219197000465
87	0.0001	-9.46332092285156	-0.5987548828125	-0.61552001953125	0.19872049463704	0.922622988009471	-0.330570698955133	0.165740914526434	-0.364076401445688	-0.916503313230399	-0.965940015872182	0.127338901781165	-0.225265820376761
88	0.0001	-9.17891235351563	-0.143102416992188	-0.477207641601563	0.195485186842239	0.923535086889306	-0.329952246559432	0.165185704924853	-0.362643619190372	-0.917171351683527	-0.966695000821735	0.124790018610744	-0.223446250005221
89	0.0001	-9.5369677734375	-0.545465698242187	-0.731079711914063	0.192435102873055	0.924530892249551	-0.328954952020009	0.166636774902277	-0.361138609670326	-0.91750263751967	-0.967057866124052	0.12174372214465	-0.223556591685331
90	0.0001	-9.76928466796875	-1.00231567382813	-0.573008422851563	0.190057487127262	0.925023878749937	-0.328951326687236	0.163154095427451	-0.360158118529184	-0.918513402625552	-0.968121321287844	0.120900593050407	-0.219372181162377
91	0.0001	-9.45433959960937	-0.496367797851563	-0.359851684570313	0.188913097204866	0.926324313968133	-0.325937274726187	0.161323264638806	-0.356679759819161	-0.920192563120146	-0.968651973616295	0.121255161897606	-0.216819140581366
92	0.0001	-9.37949523925781	-1.08913513183594	-0.647852783203125	0.187824094944574	0.927632545269732	-0.322831179278971	0.162184673761854	-0.353460029808119	-0.921282876713121	-0.968719898089748	0.120680853015061	-0.216836091923242
93	0.0001	-9.34297119140625	-1.29151428222656	-0.838855590820313	0.186898525025639	0.928386263870299	-0.321197581560305	0.165173270903843	-0.352001438085483	-0.921310359306069	-0.96839389295997	0.119138292092426	-0.219133145450736
94	0.0001	-9.55792419433594	-0.849034423828125	-0.865200805664063	0.186011132071736	0.9287335969481	-0.320708223538522	0.166326689862858	-0.35145758094574	-0.921310480258981	-0.968367332671159	0.118031668189568	-0.219848207451715
95	0.0001	-9.46811096191406	-0.784967651367187	-0.769400024414063	0.186111729018682	0.928844558656583	-0.320328285007325	0.166889863872992	-0.351172024366097	-0.921317525416222	-0.968251102585549	0.118008453750885	-0.220371974591131
96	0.0001	-9.57888061523438	-0.643661499023438	-0.727487182617188	0.186609577020442	0.929038288148869	-0.31947570317267	0.167539190462238	-0.350518241663365	-0.921448632274464	-0.968043121675636	0.118426438832899	-0.221060383519635
97	0.0001	-9.66450256347656	-0.556243286132812	-0.910107421875	0.185183186052341	0.929355413529658	-0.319383316637895	0.169042843071286	-0.350285536043579	-0.921262481839481	-0.968055631051171	0.116612857703515	-0.221967872919346
98	0.0001	-9.89322692871094	-0.325123901367187	-1.05620361328125	0.183132664764828	0.929882863836461	-0.319030228410153	0.170241607109502	-0.34961235314236	-0.921297453453029	-0.96823562334016	0.114407438890847	-0.222330195028767
99	0.0001	-9.16394348144531	-0.818497924804688	-0.9340576171875	0.181524178727692	0.930472884473432	-0.318228194534879	0.171237967965665	-0.348568707955343	-0.921508227940116	-0.968362809521425	0.112783274886105	-0.222605934426148
100	0.0001	-9.64474365234375	-0.744252319335937	-1.23283630371094	0.179842069342308	0.930885416544152	-0.317976683673658	0.172132789985792	-0.348040018397952	-0.92154134373085	-0.968518008457449	0.110997688529871	-0.222828141029453
101	0.0001	-9.52858520507812	-0.837059326171875	-1.09392517089844	0.177342367692547	0.93183130558135	-0.31660717389181	0.17292759723008	-0.346205962606342	-0.922083227031078	-0.968837308704321	0.108774304844359	-0.222536333815838
102	0.0001	-9.53277648925781	-0.813707885742188	-1.33103210449219	0.17524525362298	0.932694345834731	-0.315230643070342	0.174357755800993	-0.344526226140247	-0.922442980619182	-0.968962576199235	0.106690846605898	-0.222999078867735
103	0.0001	-9.55193664550781	-0.843046875	-1.24481140136719	0.173671918685624	0.933340841097301	-0.31418615341838	0.174110344537766	-0.343108845120388	-0.923017826656178	-0.969290282931277	0.105599217515743	-0.222092666864686
104	0.0001	-9.493857421875	-0.911903686523438	-1.18613342285156	0.172359242914252	0.934021486727388	-0.312883610490524	0.174732310902962	-0.341590888417481	-0.923463201474031	-0.969412662857535	0.104496541960564	-0.22208007972294
105	0.0001	-9.55014038085938	-0.913101196289062	-1.20170104980469	0.170533571114745	0.934336760073514	-0.312942678294573	0.175320972558124	-0.341298824772869	-0.923459619469055	-0.969629237236649	0.102615451974773	-0.222011736878678
106	0.0001	-9.43517944335938	-0.808319091796875	-1.26097778320313	0.169051504102962	0.934667893699815	-0.312757921478064	0.175778131191973	-0.340829032012296	-0.923546219488889	-0.969805979335652	0.101150874560301	-0.221911836143327
107	0.0001	-9.398056640625	-0.890348510742188	-1.21607116699219	0.167900173793506	0.935139913542845	-0.311966141975682	0.17641287078872	-0.339852276438389	-0.92378510987119	-0.96989073129925	0.100068837800414	-0.222031973015332
108	0.0001	-9.58367065429688	-0.808319091796875	-1.18134338378906	0.166675968464529	0.935519339314626	-0.311484650191206	0.176153968997353	-0.339073698314057	-0.924120558324566	-0.970148906479253	0.0991594316237953	-0.221310881741398
109	0.0001	-9.65073120117188	-0.737067260742188	-1.18074462890625	0.165095414953457	0.935739345074544	-0.311665497032971	0.175713818566208	-0.33885232950145	-0.924285536377327	-0.970498922166443	0.0978313695646945	-0.220365299452678
110	0.0001	-9.49625244140625	-0.778980102539063	-1.29690307617188	0.163644091759186	0.93609217682266	-0.311371237791362	0.175320974237517	-0.338197526973375	-0.924599907387785	-0.970815722588339	0.0967154033259785	-0.219460619553427
111	0.0001	-9.45254333496094	-0.844843139648437	-1.29211303710937	0.16179106122701	0.936656570977619	-0.310641466246036	0.174886909393268	-0.337021208215752	-0.925111492813523	-0.971204520906852	0.0953476442144406	-0.218335991794408
112	0.0001	-9.36931640625	-0.875978393554688	-1.18733093261719	0.159813863156642	0.937223605673915	-0.309953935465475	0.17439145883939	-0.335856227714534	-0.925628550439771	-0.971620887088591	0.0938749555150282	-0.217118273068463
113	0.0001	-9.52858520507812	-0.66821044921875	-1.27055786132812	0.158224555821861	0.937925859061841	-0.308642305651838	0.173811807321076	-0.334155389012793	-0.92635286561304	-0.971984796985404	0.0929260937348408	-0.215894176698741
114	0.0001	-9.46631469726563	-0.949625244140625	-1.21247863769531	0.156255605651807	0.938743753119364	-0.307155256640282	0.173467735156402	-0.332223373139303	-0.927111953973009	-0.972364710672953	0.0915849131643096	-0.214753517127404
115	0.0001	-9.47050598144531	-0.80712158203125	-1.2645703125	0.154554034522235	0.939520601792165	-0.305637185599182	0.173414758188976	-0.330348816783556	-0.927791453340654	-0.972646067207985	0.0903919136748043	-0.213983480406894
116	0.0001	-9.6231884765625	-0.614322509765625	-1.27115661621094	0.153146273297779	0.940261976848072	-0.304061891510194	0.172311846687452	-0.328386278546304	-0.928693210674908	-0.973064667155355	0.0898324382184103	-0.212309412362178
117	0.0001	-9.54056030273438	-0.64905029296875	-1.16996704101563	0.152049927660279	0.94129331386521	-0.301409549900391	0.171725668573714	-0.325476775669014	-0.92982534018654	-0.973340184237461	0.0896201192409103	-0.211132943843044
118	0.0001	-9.54475158691406	-0.728684692382813	-1.19571350097656	0.150763357073052	0.942240931901077	-0.299086001702275	0.171646662124291	-0.322899142650072	-0.930738183947257	-0.973554227326682	0.0889840992876683	-0.210413869619636
119	0.0001	-9.37051391601562	-0.802930297851563	-1.15380065917969	0.149656103888116	0.943022763775395	-0.297171865374979	0.172963340153018	-0.320891598269816	-0.931188630258636	-0.973492030543723	0.0879582239546597	-0.211131753430414
120	0.0001	-9.48128356933594	-0.695753173828125	-1.22325622558594	0.148931566087379	0.943736923751896	-0.295262607470145	0.174374619724294	-0.31897813169382	-0.931582762559037	-0.973351365447631	0.0872557748715146	-0.212069679899799
121	0.0001	-9.45314208984375	-0.532293090820313	-1.41425903320313	0.148260562610863	0.944214378694286	-0.29407144139014	0.176197154139997	-0.317820304379856	-0.931635560182662	-0.973125566639412	0.0863102612141779	-0.213488103560512
122	0.0001	-9.51062255859375	-0.758023681640625	-1.65495849609375	0.147440518881014	0.944466651532645	-0.293673351761461	0.176700113939531	-0.31729438301793	-0.931719563086999	-0.973158960872197	0.0854811011158846	-0.213669413408101
123	0.0001	-9.29207702636719	-0.746048583984375	-1.52263366699219	0.146169829736626	0.944773325509661	-0.293321912376456	0.176513638581142	-0.31665662432361	-0.931971843816551	-0.973384464777208	0.0844508477008477	-0.213051022182473
124	0.0001	-9.06335266113281	-0.589773559570313	-1.71124145507813	0.145017541319186	0.944995069930137	-0.293179519266734	0.176559035972104	-0.316271522072289	-0.93209400338307	-0.973548570707358	0.0834064873604707	-0.212712337065456
125	0.0001	-9.37111267089844	-0.595162353515625	-1.42204284667969	0.14362928121932	0.945230134232121	-0.293105139695551	0.177030119309974	-0.315939049864124	-0.932117403350056	-0.973668817634373	0.081990914804517	-0.212712302079594
126	0.0001	-9.66390380859375	-0.686771850585937	-1.53999755859375	0.142967305244986	0.945522165968299	-0.29248621043325	0.176465837171546	-0.315138914060647	-0.932495186666409	-0.973868655385485	0.0817025000063804	-0.211906921902931
127	0.0001	-9.55552917480469	-0.5508544921875	-1.64358215332031	0.142049223127074	0.946139708621762	-0.290932414794436	0.175886983670363	-0.313361434204926	-0.933203290032977	-0.974107687673358	0.0813895774786859	-0.210926407767033
128	0.0001	-9.40703796386719	-0.629291381835938	-1.62921203613281	0.140843762956987	0.946724421629942	-0.289613369728624	0.175701236587846	-0.31178797628978	-0.933765138191947	-0.974316226847125	0.0806295685873123	-0.21025404341369
129	0.0001	-9.4699072265625	-0.80712158203125	-1.89386169433594	0.139334389013234	0.947256649618904	-0.288601399496049	0.175202437544868	-0.310428416021162	-0.934311674124288	-0.974623021437851	0.0796180775914712	-0.209215027672471
130	0.0001	-9.38548278808594	-0.683778076171875	-1.25858276367188	0.138027918244758	0.947446428188773	-0.288606236068028	0.174642214473712	-0.310111769649219	-0.934521689019975	-0.974909426925771	0.078587251112159	-0.208268224301976
131	0.0001	-9.48367858886719	-0.673599243164062	-1.484912109375	0.136695298676074	0.947863355344745	-0.287870552357239	0.174250129818895	-0.309074518951965	-0.934938411871451	-0.97516731260741	0.0776402043352161	-0.207414346400698
132	0.0001	-9.35015625	-0.5029541015625	-1.59388549804688	0.135470296516702	0.94826065268399	-0.287140267696836	0.173506293554031	-0.308038970375842	-0.935418387047707	-0.97547084264924	0.0769007626823377	-0.20625932182584
133	0.0001	-9.67827392578125	-0.46702880859375	-1.83039367675781	0.134700805163392	0.948656716552957	-0.286192465357313	0.172711649336078	-0.306881328568035	-0.935945797768188	-0.97571839137732	0.0766438798292481	-0.205181228217335
134	0.0001	-9.78724731445313	-0.477207641601563	-1.46994323730469	0.133655176652652	0.948768261775348	-0.286312904357684	0.170995241511502	-0.306649894590491	-0.936336728708248	-0.976164392474122	0.0761881066533656	-0.203220203892733
135	0.0001	-9.39386535644531	-0.45984375	-1.63519958496094	0.132745303721736	0.948979655010489	-0.286035485064351	0.169608937389053	-0.306081972299879	-0.936774591132132	-0.976530333731411	0.0758382529413131	-0.201586375266854
136	0.0001	-9.43937072753906	-0.473615112304688	-1.35318603515625	0.132062147276562	0.949072246770503	-0.28604450644383	0.167808319399367	-0.305812599615655	-0.937186759326377	-0.976933957438815	0.0757662479360432	-0.19964848728861
137	0.0001	-9.18849243164063	-0.451461181640625	-1.07955505371094	0.131056892276485	0.949361558438445	-0.285546357613185	0.166687388733158	-0.305031876394007	-0.937641119416631	-0.977261175645565	0.0752873544685813	-0.198223128905209
138	0.0001	-9.42380310058594	0.0089813232421875	-1.34480346679688	0.13006450676623	0.950007801844732	-0.283845733654388	0.166340172047206	-0.303127143001234	-0.938320245086514	-0.977452899756793	0.074827211695009	-0.197450543546952
139	0.0001	-9.77766723632813	-0.373623046875	-1.06398742675781	0.129067567791973	0.950383138499213	-0.283043199884136	0.165704263517285	-0.302087558311243	-0.938767918159619	-0.977693029532511	0.074263026937619	-0.196472244435706
140	0.0001	-9.43577819824219	0.473615112304688	-1.17775085449219	0.127369837606998	0.951443230854971	-0.280236869323473	0.165787045470309	-0.298985484075931	-0.939745888986011	-0.977901620830129	0.0732356386750047	-0.195818694729771
141	0.0001	-9.992021484375	-0.0221539306640625	-1.504072265625	0.124705638812141	0.952322714974248	-0.278442005079213	0.165779816783952	-0.296686759341372	-0.940475421889692	-0.978246163292009	0.0711225236868838	-0.194874397058396
142	0.0001	-9.5417578125	-0.061072998046875	-1.35797607421875	0.122336604854287	0.952832253349251	-0.277748901150147	0.165289303793299	-0.295502635138836	-0.940934449724066	-0.978628224181304	0.0692018034692177	-0.193643768896278
143	0.0001	-9.40643920898438	0.020357666015625	-1.28313171386719	0.120503690559177	0.953371764614581	-0.27669683590041	0.165035803351126	-0.294088696118082	-0.941421808982464	-0.978898382966213	0.0677799177577448	-0.192779248299413
144	0.0001	-9.31003967285156	-0.182620239257813	-1.35138977050781	0.118908369587639	0.954016030060658	-0.275162159515643	0.165306565613393	-0.292281990637851	-0.941936822357997	-0.979047771565369	0.0665180602248552	-0.192459888436027
145	0.0001	-9.6327685546875	-0.289198608398438	-1.28971801757813	0.117553950679506	0.954533664908241	-0.27394625610963	0.165359259226622	-0.290822524838931	-0.942379209466302	-0.979202422417175	0.0654808491327983	-0.192028316477504
146	0.0001	-9.72318054199219	-0.321531372070313	-1.35438354492188	0.116568229996415	0.954803410684331	-0.273426945821133	0.164877489322353	-0.290087328793554	-0.942690169243415	-0.979401481145634	0.064805776123658	-0.191240555611905
147	0.0001	-9.51361633300781	-0.28979736328125	-1.35138977050781	0.115776847469498	0.95484014382529	-0.273634832084155	0.164226815911151	-0.290097511034499	-0.94280060830871	-0.979604652156016	0.0642163050267437	-0.190396931810895
148	0.0001	-9.57349182128906	-0.298778686523438	-0.9915380859375	0.11472039937227	0.954873040254359	-0.273964791466468	0.163599338873288	-0.290180217776097	-0.942884243972525	-0.9798339075007	0.0633475982718757	-0.189506188566745
149	0.0001	-9.9105908203125	-0.532891845703125	-1.43461669921875	0.113638543591117	0.954943508113044	-0.274169979617104	0.164572399724152	-0.290238114988767	-0.94269706791567	-0.979797023193847	0.0620059103676446	-0.190139581413118
150	0.0001	-9.0483837890625	0.162861328125	-1.10290649414063	0.111497210805662	0.955003549335507	-0.274839212520961	0.165632149215399	-0.290553783244002	-0.942414181869567	-0.979864461611322	0.0595543432436423	-0.190575226805513
151	0.0001	-9.96208374023437	-0.908909912109375	-1.609453125	0.109965642677022	0.954806588096711	-0.276137532323563	0.167518730543809	-0.291652153088275	-0.941741204639557	-0.979716812322633	0.0573009679332787	-0.192019704005315
152	0.0001	-9.80580871582031	-0.980161743164063	-1.35019226074219	0.109337145710253	0.954367194489705	-0.277900425781941	0.169923674422596	-0.293406878146174	-0.940764768009113	-0.979372928683787	0.0556386730464132	-0.194249851024334
153	0.0001	-9.17951110839844	-0.549656982421875	-1.58191040039063	0.108367450111709	0.953827614012095	-0.280123862789804	0.172766527662376	-0.295565361658409	-0.939570563559342	-0.978983259650425	0.0534228390833805	-0.196819149445626
154	0.0001	-9.72078552246094	-1.15320190429688	-1.84117126464844	0.106695090560385	0.953052129330081	-0.283386302473691	0.175731442414511	-0.298601592757687	-0.938059459175957	-0.978639166290225	0.0502864552535876	-0.199340549364153
155	0.0001	-10.0459094238281	-1.35617980957031	-2.3423291015625	0.104644533123505	0.951882363433791	-0.288044246377298	0.178319461361878	-0.302899470180146	-0.936191262864697	-0.978392401537836	0.0466034027543928	-0.201435923967743
156	0.0001	-9.838740234375	-1.42862915039062	-2.12737609863281	0.103268406882638	0.949748122520982	-0.295489661253642	0.179551934438965	-0.309997636724865	-0.93362870996142	-0.978313211082805	0.0433586092128019	-0.202542074710377
157	0.0001	-9.79443237304688	-1.4897021484375	-2.05911804199219	0.102219498099288	0.947308898306165	-0.303573756109269	0.179329602912539	-0.317720946526631	-0.93107158353021	-0.978464137169861	0.0407339088252235	-0.202357804258341
158	0.0001	-9.263935546875	-1.46455444335938	-1.69926635742188	0.100444896212613	0.94425764891398	-0.313509673363167	0.177871524016782	-0.327069233666711	-0.928109604159238	-0.978913961371879	0.0374594294685944	-0.200808982306825
159	0.0001	-9.37769897460938	-1.44419677734375	-1.66813110351562	0.0988321116316689	0.940864873032671	-0.324045528288296	0.176164971648679	-0.337039144091894	-0.924862431993982	-0.979386602151799	0.0343206358189774	-0.199057723996171
160	0.0001	-9.18549865722656	-1.07416625976562	-1.57532409667969	0.0978737907274394	0.937471298922687	-0.334018389890214	0.174182229127885	-0.346585634788127	-0.921704371701985	-0.979837370253188	0.0320306330677416	-0.197212490478158
161	0.0001	-9.15436340332031	-0.988544311523438	-1.67232238769531	0.0967643432014478	0.933958124477772	-0.344033259448495	0.172885573846458	-0.356172839539014	-0.918287257197058	-0.980177147377235	0.0293790758309118	-0.195932717183089
162	0.0001	-9.38668029785156	-0.892743530273438	-1.66573608398438	0.0953192235746915	0.93034603374791	-0.35407697342054	0.172703010713911	-0.365758152546993	-0.914546140955043	-0.980350914574709	0.0260236687448685	-0.195537344150903
163	0.0001	-9.90939331054688	-1.22804626464844	-1.94834838867188	0.0941862071226354	0.926072327671221	-0.365402520940209	0.174034710522763	-0.376698230916019	-0.909840844520623	-0.980224911905992	0.0221017362745357	-0.196648507069188
164	0.0001	-9.69683532714844	-1.65136596679687	-1.46635070800781	0.0939979127613685	0.920516312633652	-0.379228309296459	0.174562255989975	-0.390252716108588	-0.904008205910521	-0.980149178023528	0.0187759352686845	-0.197370344972566
165	0.0001	-8.92144775390625	-1.01788330078125	-1.86991149902344	0.0953487473418849	0.915859054210281	-0.39001385770429	0.175685693062272	-0.401131336361238	-0.899015121253406	-0.97981791861221	0.0172001107582564	-0.19915070312791
166	0.0001	-9.17771484375	0.0053887939453125	-1.81183227539063	0.0971255050683713	0.91150684955696	-0.399652223159036	0.176664333425961	-0.410963275128602	-0.894370672479109	-0.979467380549436	0.016261909676278	-0.200945765651595
167	0.0001	-9.10227172851562	0.537681884765625	-1.68729125976563	0.0995830976089196	0.907790552037201	-0.407430387063368	0.17782523727182	-0.419110329916969	-0.89035089506672	-0.979010414479761	0.016212494838325	-0.20316437520216
168	0.0001	-9.34895874023437	0.466430053710938	-1.26516906738281	0.10168930687484	0.904477463713951	-0.414221924215622	0.178966772314133	-0.426219703741595	-0.886739904678868	-0.97858580578035	0.0160400054864365	-0.205213398561642
169	0.0001	-10.1273400878906	0.6562353515625	-1.47892456054688	0.102706206970972	0.901317130290052	-0.420807397386669	0.179004255725088	-0.432885468012862	-0.883497395590725	-0.978472744373569	0.0154143513970435	-0.205799626552297
170	0.0001	-10.0548907470703	0.541873168945313	-1.02746337890625	0.102642065564244	0.896891430147297	-0.430174812029995	0.177448700859071	-0.442031783040936	-0.879272347651784	-0.978762772555298	0.0139163684194833	-0.20452327434764
171	0.0001	-9.87646179199219	0.435294799804688	-0.921483764648438	0.102599290218772	0.89199274445848	-0.440252574643276	0.175939090950297	-0.451883130266512	-0.874555357227958	-0.979039744812328	0.0122711211373467	-0.203299281021466
172	0.0001	-9.50463500976563	0.72569091796875	-1.16218322753906	0.102403394989228	0.887201484717016	-0.449874504957331	0.175270240158185	-0.461269019797796	-0.869776542733633	-0.979180212018999	0.0102184583330008	-0.202735530925697
173	0.0001	-9.67767517089844	1.06458618164063	-1.331630859375	0.101541758023632	0.882280366473943	-0.459641845693008	0.174659222983044	-0.470663929315206	-0.864852369753665	-0.979379102903686	0.00753794243645839	-0.20189044608251
174	0.0001	-9.31482971191406	0.901126098632813	-1.34839599609375	0.100674688832604	0.878101301301524	-0.46776352110979	0.174907445493794	-0.478450519786088	-0.860518730549927	-0.979424316902176	0.00481713286024532	-0.201754312696688
175	0.0001	-9.11484558105469	1.0106982421875	-1.35797607421875	0.0993989014519827	0.873975470740811	-0.475696053098527	0.176253693726571	-0.485968443926534	-0.856019454776212	-0.979313276657618	0.00124420697651423	-0.202346134411113
176	0.0001	-9.11843811035156	1.14541809082031	-1.27774291992188	0.0981555076665713	0.870127275467832	-0.482953435438289	0.178458547114383	-0.492820243718417	-0.851634166965572	-0.979039347154414	-0.0025945844075142	-0.203654670595131
177	0.0001	-9.30285461425781	1.2597802734375	-1.56514526367188	0.0968064198227356	0.866996414883737	-0.488820758212918	0.181798829481908	-0.498267983422614	-0.847748902856836	-0.978558992948362	-0.0067995054753453	-0.205854472978311
178	0.0001	-9.61899719238281	0.9532177734375	-1.30947692871094	0.095567919727181	0.863925998242673	-0.4944680396946	0.185952478216851	-0.503491718035833	-0.843752194494531	-0.977900019717778	-0.0113119153871531	-0.208766836461741
179	0.0001	-9.62498474121094	0.414937133789062	-1.50287475585938	0.0950585681133118	0.862305193773999	-0.497386792565537	0.19218072250371	-0.506146535680552	-0.840762900178479	-0.976744817506701	-0.0156664357452864	-0.213832000095496
180	0.0001	-10.0776434326172	0.236508178710938	-1.63160705566406	0.0938245364576892	0.861160845786901	-0.499598793075093	0.198701037412924	-0.50791380602945	-0.838177465323249	-0.97555873943578	-0.0206291863210312	-0.218768330848422
181	0.0001	-8.90348510742188	-1.1927197265625	-1.30588439941406	0.0921437441881745	0.858940804324319	-0.503716413345521	0.204771581883809	-0.511401903430665	-0.834587738000203	-0.974462995531276	-0.0262447677487233	-0.223009153413103
182	0.0001	-9.21483764648437	-1.99445251464844	-1.33043334960937	0.0906138223963358	0.857066487751014	-0.507174694523362	0.211716766478861	-0.51420696561535	-0.831124062522792	-0.973121341859514	-0.0320660581736292	-0.228049604101267
183	0.0001	-10.5536535644531	-2.33215026855469	-2.04175415039062	0.087711062624938	0.854145542194653	-0.512583809968874	0.218190151119077	-0.518544926874211	-0.826743138325111	-0.971956700397625	-0.0393262197779297	-0.231848271484045
184	0.0001	-9.51601135253906	-2.64649658203125	-1.963916015625	0.085299711909422	0.849842166105521	-0.520088696144463	0.223354759149251	-0.525016263286932	-0.821261575169329	-0.970997739808673	-0.0461109096993724	-0.234600028331512
185	0.0001	-9.08131530761719	-2.51656677246094	-2.13575866699219	0.0841168073453067	0.844336382281715	-0.529169572327679	0.227015500560612	-0.533324573357104	-0.814879661028963	-0.970251681383365	-0.0515846198870313	-0.236539006854817
186	0.0001	-8.81726440429687	-2.45309875488281	-1.80404846191406	0.0833191175917177	0.837409819407373	-0.540187670170145	0.22963176500399	-0.543618278159663	-0.807309370781657	-0.969704685533121	-0.0567799437375113	-0.23758969010518
187	0.0001	-9.06455017089844	-2.49261657714844	-2.13096862792969	0.0829678318091583	0.829925529097625	-0.551670150576334	0.232203535325888	-0.554441248029778	-0.799172334772257	-0.969122209562368	-0.0617941634396726	-0.238712430128271
188	0.0001	-9.09867919921875	-2.14414123535156	-2.24293579101563	0.0836215972282012	0.822458095224119	-0.562645634549242	0.23451663238653	-0.565007066734183	-0.791055600874247	-0.968508842298864	-0.0658004266000515	-0.240126896136533
189	0.0001	-8.95378051757813	-1.99205749511719	-2.11420349121094	0.0848055431418117	0.814806961439072	-0.573495976832313	0.23694385586116	-0.575550136576408	-0.782687453238216	-0.967814873321375	-0.0695101134893622	-0.241873345163595
190	0.0001	-8.88731872558594	-1.79027709960938	-2.02019897460938	0.0859445992117289	0.807781515429675	-0.583183118065392	0.239539366342087	-0.584932401995025	-0.774903204967409	-0.967075187272824	-0.0730965691839783	-0.243767253204291
191	0.0001	-9.43817321777344	-1.4418017578125	-1.92200317382813	0.0869095063118674	0.801598700118629	-0.591511844074784	0.242123156127083	-0.59295125315465	-0.767974731777935	-0.966345235917106	-0.0764744097751287	-0.245618707898763
192	0.0001	-9.22980651855469	-1.41485778808594	-1.89805297851563	0.0872454408889149	0.796120616097926	-0.598815662510558	0.245296030018922	-0.59976819710494	-0.761648191357694	-0.965514417655715	-0.080436772469744	-0.24761226733261
193	0.0001	-9.21483764648437	-1.45257934570313	-2.05432800292969	0.0876264948774923	0.791661473457502	-0.604643455962753	0.248912572790288	-0.605124759145671	-0.756218590736709	-0.964553849457046	-0.0842385737770457	-0.250079455744779
194	0.0001	-9.25495422363281	-1.55616394042969	-2.14294372558594	0.0885002049359618	0.788478912709104	-0.608661414859988	0.252946552536618	-0.608818186340483	-0.75190322352077	-0.963423974834617	-0.0874152171772959	-0.253323556977462
195	0.0001	-9.41961181640625	-1.71243896484375	-2.44052490234375	0.0890368648837924	0.78587562956642	-0.611941117710886	0.255845409664602	-0.611812029465771	-0.748484580305117	-0.962608727908291	-0.0899196055071278	-0.25553649739367
196	0.0001	-9.43877197265625	-1.56454650878906	-2.28604614257813	0.0894209010418181	0.783782371195525	-0.614564152111063	0.257559459815954	-0.614244959721479	-0.745899627373598	-0.962115911476462	-0.0915877942734717	-0.256796901897077
197	0.0001	-9.20406005859375	-1.60346557617188	-2.23275695800781	0.0897826073070961	0.783037049942605	-0.615460853216776	0.258772467044297	-0.615074151273376	-0.744795675830053	-0.961756670746269	-0.09239462566902	-0.257851390189259
198	0.0001	-9.33758239746094	-1.59089172363281	-2.39501953125	0.0902614763773717	0.781840289842112	-0.616910550292164	0.259557884169797	-0.616499314733808	-0.74334265295222	-0.961500166743342	-0.0930287918461197	-0.258578949723631
199	0.0001	-9.82496887207031	-1.35198852539062	-2.25012084960938	0.0906341168353396	0.780877545702914	-0.6180741990105	0.259878659240749	-0.617669785774114	-0.742258121015183	-0.961378457911716	-0.0933503848880789	-0.25891536513799
200	0.0001	-9.74533447265625	-1.22864501953125	-1.99924255371094	0.0905347779260011	0.779530535143199	-0.619786736519303	0.260081409280308	-0.619252313291431	-0.740867216868165	-0.961332988372218	-0.0941207589353696	-0.258805270821078
201	0.0001	-9.16274597167969	-1.27055786132812	-1.87530029296875	0.090427454820609	0.777801677453831	-0.621970598955186	0.260620975321631	-0.621246937071771	-0.739005379142361	-0.961196953093937	-0.0952722085864964	-0.258889211119317
202	0.0001	-9.31123718261719	-0.899928588867188	-1.63639709472656	0.090032915423609	0.776395745631403	-0.623781789014222	0.261929941490332	-0.622735335170079	-0.737287873277108	-0.960878129572734	-0.0970069507616197	-0.259427969989237
203	0.0001	-9.70342163085938	-0.637673950195312	-1.81781982421875	0.0888541080748757	0.77451565229807	-0.626283044496268	0.263830370275519	-0.624612591148865	-0.735018807037333	-0.960467845999282	-0.0999230470091686	-0.259840146008854
204	0.0001	-9.10825927734375	-0.765807495117187	-1.51544860839844	0.0879296649367963	0.771446536233661	-0.630189349130235	0.266869611860219	-0.627757050311079	-0.731232997101682	-0.959712969741307	-0.10388131457495	-0.261074104791152
205	0.0001	-9.07113647460938	-1.11368408203125	-1.34240844726563	0.0879045666953193	0.767408284606577	-0.635104174030765	0.271212697209688	-0.631924098600638	-0.726027276677686	-0.958496979664701	-0.10842720288268	-0.263679884801029
206	0.0001	-9.398056640625	-1.19631225585938	-1.91062683105469	0.0885772595494123	0.763053320282142	-0.640237221268113	0.275746661728036	-0.636427801388757	-0.720363402849782	-0.957140453453181	-0.112735460374593	-0.266782436336368
207	0.0001	-9.27531188964844	-0.927471313476563	-2.04414916992188	0.0895523535621189	0.758630616945234	-0.645337092537519	0.280473033660941	-0.640927246982511	-0.71452581581385	-0.955675286569928	-0.117012183590906	-0.270171973992074
208	0.0001	-9.091494140625	-1.09212890625	-2.15611633300781	0.0908832506842248	0.754550088979089	-0.649918762590154	0.285088709849393	-0.645019192840967	-0.708995534811889	-0.954182719536189	-0.120848682609436	-0.273735152382895
209	0.0001	-9.32081726074219	-0.760418701171875	-2.46507385253906	0.0923892661940797	0.751056836087619	-0.653741426298025	0.289612343222546	-0.648433826859239	-0.704030015580181	-0.952674610843212	-0.124286769813761	-0.27742365563159
210	0.0001	-9.81059875488281	-0.605341186523437	-2.22856567382812	0.0935181810587598	0.747873279655466	-0.657221353418191	0.293374996405051	-0.651504920542581	-0.699623077087328	-0.951412350821555	-0.127384834600445	-0.28033487585033
211	0.0001	-9.69384155273437	-1.17415832519531	-2.25910217285156	0.0937389823420023	0.745573371817155	-0.659797961823681	0.297209168799902	-0.653453541570897	-0.696178984880845	-0.9501998280208	-0.130838894238867	-0.28284531211175
212	0.0001	-9.43038940429688	-1.12506042480469	-2.51297424316406	0.0936641177753409	0.743832514366378	-0.661770521867481	0.300144226918946	-0.654864573241712	-0.693589095762166	-0.949284191424568	-0.133662190930503	-0.284594347496683
213	0.0001	-9.53038146972656	-0.988544311523438	-2.58901611328125	0.0933547725839369	0.742790774525881	-0.662983221292247	0.302850577139493	-0.655523131388287	-0.691788227813375	-0.948454750824771	-0.136203118518395	-0.286150827613317
214	0.0001	-9.39685913085938	-0.93166259765625	-2.40519836425781	0.0931327693268229	0.742661705434488	-0.663159014534716	0.305133096664318	-0.655294176061522	-0.691001690403066	-0.947744733880152	-0.137996862649082	-0.287640027293577
215	0.0001	-9.40883422851562	-0.853225708007812	-2.40579711914063	0.0926262635012226	0.743517641125092	-0.662270256500759	0.307153856756171	-0.654028373188763	-0.691305573060039	-0.947141427448727	-0.139385811328984	-0.288954515470081
216	0.0001	-9.49565368652344	-0.84065185546875	-2.270478515625	0.0916099508047801	0.744841278674581	-0.660922905107669	0.308981953085857	-0.652216714141354	-0.692201928964304	-0.946645535340866	-0.140800665399952	-0.289892054120384
217	0.0001	-9.56031921386719	-0.769400024414063	-2.23575073242188	0.0900254213921156	0.746724074185855	-0.659013338662011	0.310712960400505	-0.649731988978856	-0.693762062047741	-0.946230880780334	-0.142307763417383	-0.290509243792372
218	0.0001	-9.43937072753906	-0.695753173828125	-2.12378356933594	0.0881064133387675	0.749066727541929	-0.656609699607159	0.31229685953027	-0.646711654716604	-0.695869748718281	-0.945890020803745	-0.143746559413913	-0.29091063095142
219	0.0001	-9.4890673828125	-0.644859008789063	-2.1076171875	0.0862390513145611	0.751832188078428	-0.65369043667287	0.313887467427985	-0.643222924165298	-0.698383080851684	-0.945535553969289	-0.144957341302351	-0.291461636210571
220	0.0001	-9.37590270996094	-0.77359130859375	-2.098037109375	0.0844635295713076	0.755194788378511	-0.650035955758059	0.31552436459403	-0.639067422459731	-0.70145363702686	-0.945150933724286	-0.145854931889915	-0.292260245882839
221	0.0001	-9.50643127441406	-0.756227416992188	-2.09983337402344	0.0822964783198461	0.758813810894909	-0.646087370292359	0.316872313558124	-0.634567911423263	-0.704922338057349	-0.944891118889617	-0.146714573874112	-0.292669792183041
222	0.0001	-9.49026489257812	-0.5891748046875	-2.01121765136719	0.0799293929375723	0.763036759158095	-0.641393947834046	0.318074947075382	-0.629338344979673	-0.70905682112313	-0.944690224458591	-0.147336864741168	-0.293005508652344
223	0.0001	-9.46751220703125	-0.683179321289063	-1.963916015625	0.0774125961134082	0.767553601626701	-0.636292981725292	0.319198757658593	-0.623695803994913	-0.713523438429565	-0.944520747825157	-0.147868227516997	-0.293284067447907
224	0.0001	-9.45433959960937	-0.613125	-1.86093017578125	0.0747011077065904	0.772943376853441	-0.630062124465364	0.320524083681025	-0.616911008322412	-0.718808124321828	-0.944290239432691	-0.148254321991044	-0.29383090328134
225	0.0001	-9.47050598144531	-0.595162353515625	-1.83697998046875	0.0718231678195297	0.778214493835407	-0.623877900032425	0.321268063437175	-0.610208082882849	-0.724177414035929	-0.944260697042769	-0.148419328825254	-0.293842540914971
226	0.0001	-9.46751220703125	-0.72569091796875	-1.59628051757813	0.0691028080339877	0.784480814559454	-0.616291046105616	0.322557745711661	-0.602154743061396	-0.730319222046138	-0.944023994717947	-0.148322341529523	-0.294650946714871
227	0.0001	-9.43038940429688	-0.587378540039063	-1.76093811035156	0.0660028472208571	0.79103968308106	-0.608193919691539	0.323748663191197	-0.59352543524631	-0.736827225879711	-0.943838136144463	-0.148269273643244	-0.295272408552936
228	0.0001	-9.40763671875	-0.740659790039063	-1.69747009277344	0.062699961657654	0.797547427229569	-0.599989013339098	0.325059267149647	-0.58471097761396	-0.743269497220128	-0.943612837793268	-0.148429019996841	-0.295911538089535
229	0.0001	-9.32860107421875	-0.477207641601563	-1.6717236328125	0.0592667712838388	0.804534685761227	-0.590941104703906	0.326680678577013	-0.575016419630081	-0.75009056213251	-0.943274712936826	-0.148593595295648	-0.296905303709889
230	0.0001	-9.65552124023437	-0.686173095703125	-1.46994323730469	0.055149118532862	0.811506306835604	-0.581735411240443	0.328025105887149	-0.565008966415213	-0.757076216624283	-0.943057847977935	-0.149071733861428	-0.2973541886888
231	0.0001	-9.60702209472656	-0.531095581054688	-1.79087585449219	0.0509531459561763	0.818784262939111	-0.571835734875344	0.329297131901	-0.554332969941388	-0.764381028910148	-0.9428505585929	-0.14935624928076	-0.297868318157267
232	0.0001	-9.52619018554688	-0.731079711914063	-1.61663818359375	0.0461503913782404	0.826479295846938	-0.561072290272817	0.330511029446191	-0.542670038830505	-0.7721863041845	-0.942673114494126	-0.149803880096769	-0.298204957567607
233	0.0001	-9.68905151367188	-0.940643920898438	-1.65196472167969	0.0408185263403914	0.834117334157071	-0.550074650175865	0.331508406116906	-0.530654390423718	-0.780069288331403	-0.942568843417407	-0.15051309173203	-0.298177438174048
234	0.0001	-9.50104248046875	-1.12386291503906	-1.79985717773438	0.0356415297702598	0.841611090579855	-0.538906720656389	0.332143224361212	-0.518571225451896	-0.7878862625051	-0.94255533517485	-0.150912744148086	-0.298018093053293
235	0.0001	-9.24896667480469	-1.23942260742188	-1.67830993652344	0.0308326726075472	0.84896972547795	-0.527541232058472	0.332525851829979	-0.506440737144836	-0.795577989655912	-0.942589997912466	-0.150891301876849	-0.29791930258593
236	0.0001	-8.89390502929688	-1.74776550292969	-1.84536254882813	0.026292548314118	0.855910608484372	-0.516454966272048	0.33271251528736	-0.49467166907705	-0.802871298517816	-0.942661701817947	-0.150721498454724	-0.297778350168804
237	0.0001	-9.48068481445313	-1.70764892578125	-1.64657592773438	0.0228942674909667	0.863279777030469	-0.504206187076554	0.332913300463872	-0.482137284361877	-0.810377920110368	-0.94267947197884	-0.14930393698218	-0.298435499750478
238	0.0001	-9.86807922363281	-1.78189453125	-1.28672424316406	0.0195148136231641	0.87053547434485	-0.491718578006202	0.332414118628896	-0.469482947115335	-0.817977148888692	-0.942931612464779	-0.147491526112816	-0.298540154651741
239	0.0001	-9.52978271484375	-1.75435180664063	-1.42503662109375	0.0166274880005227	0.87720798610683	-0.479822546107612	0.331941235250448	-0.45751442591383	-0.824921551676974	-0.943153509765616	-0.145556515454094	-0.298788818106807
240	0.0001	-8.92264526367187	-1.75255554199219	-1.19990478515625	0.0139986481970586	0.88371510836181	-0.467815823911215	0.331698037463399	-0.445472798052455	-0.831583067491304	-0.943281744650868	-0.143532551877232	-0.299362584101663
241	0.0001	-9.05556884765625	-1.78249328613281	-1.41725280761719	0.0116909632251184	0.890471756214807	-0.454888308008226	0.332001298977291	-0.432569011917269	-0.83824768857797	-0.943206477318864	-0.141223586247608	-0.300694928176556
242	0.0001	-9.11185180664063	-1.76033935546875	-1.43461669921875	0.00949464348699858	0.897170363322878	-0.441582598072151	0.332140598488625	-0.419359884420791	-0.844878636358027	-0.943182100434838	-0.138645686963845	-0.301968374015642
243	0.0001	-9.51241882324219	-1.59208923339844	-1.47114074707031	0.0075491647939977	0.903825718064274	-0.427834175208705	0.331716008122943	-0.405883451062314	-0.851600325333854	-0.943349087064748	-0.135490573544236	-0.302877540294359
244	0.0001	-9.49744995117188	-1.61124938964844	-1.42324035644531	0.00564655345893317	0.910175973406789	-0.414183309498391	0.330327591980553	-0.392636882154985	-0.858323925303228	-0.943849457493283	-0.131969603335834	-0.302873282719057
245	0.0001	-9.63755859375	-1.29570556640625	-1.40767272949219	0.00402037372088404	0.915980274339708	-0.401203157534555	0.328670295320403	-0.380127272097892	-0.864568732942277	-0.944436167016672	-0.128387670856542	-0.30258376097023
246	0.0001	-9.5273876953125	-1.08614135742188	-1.76093811035156	0.00262981993475286	0.921616748550903	-0.388092325146443	0.327455028317738	-0.367490309374075	-0.870473478599765	-0.94486310568068	-0.12479359481403	-0.302754471836258
247	0.0001	-9.58905944824219	-1.05380859375	-1.34420471191406	0.000915322789036055	0.926692443757803	-0.37581947377216	0.325794444622327	-0.355591476703982	-0.876020936706829	-0.945440184272607	-0.121638054808816	-0.302236731031995
248	0.0001	-9.16214721679687	-0.904119873046875	-1.36156860351563	-0.000648396965947651	0.931299428406927	-0.364253969409127	0.324633230670446	-0.344330000185758	-0.880937067284914	-0.945839756579223	-0.118820139795437	-0.302107479637875
249	0.0001	-9.64474365234375	-0.45744873046875	-1.38072875976563	-0.00207999344876231	0.935399297497727	-0.353587086681643	0.323907174673596	-0.333895240226999	-0.885210771934415	-0.946086579453605	-0.116370626854516	-0.302288043731909
250	0.0001	-9.38248901367188	-0.610131225585938	-1.37713623046875	-0.00332904289188507	0.93898563204023	-0.343940256869466	0.323325169913464	-0.324457403573609	-0.888925321816575	-0.946282067870809	-0.114163812516411	-0.302517556412622
251	0.0001	-9.31063842773438	-0.207767944335938	-1.36755615234375	-0.00468792578922583	0.942197845740957	-0.335024242157033	0.323052658278021	-0.315636712364287	-0.892194174934677	-0.946369379962866	-0.112413012098082	-0.302899837206522
252	0.0001	-9.47828979492188	-0.0221539306640625	-1.41545654296875	-0.00588038252457945	0.945271672183422	-0.326231339495338	0.322974900919896	-0.306957175688342	-0.895245500222827	-0.946389261602829	-0.110628920545191	-0.303493999054113
253	0.0001	-9.51062255859375	0.013172607421875	-1.39210510253906	-0.00668742924120125	0.948233281524231	-0.317504208003505	0.322998044847401	-0.298443501506322	-0.898111206607179	-0.946376004194369	-0.10855929356087	-0.304281676192741
254	0.0001	-9.63695983886719	0.075443115234375	-1.41126525878906	-0.0073413397158365	0.951283901986212	-0.308228880141144	0.323279873883522	-0.289427169144467	-0.900956179235635	-0.946274921929685	-0.106258418880139	-0.305406156689845
255	0.0001	-9.56331298828125	0.001197509765625	-1.57233032226563	-0.00838009447276478	0.953996120189613	-0.299701812940452	0.322836381697149	-0.28108189634914	-0.903753084751285	-0.946417690382698	-0.10432818510804	-0.305629162749144
256	0.0001	-9.63875610351563	-0.111967163085938	-1.41246276855469	-0.0100514118510556	0.956668078193349	-0.291007143014815	0.322408358305749	-0.2723793133979	-0.906566246960188	-0.94654731504262	-0.102935405953116	-0.305699987875163
257	0.0001	-9.5082275390625	0.15088623046875	-1.48551086425781	-0.0118810997751954	0.959004187096383	-0.283142735382239	0.321803560520722	-0.264430952028603	-0.90913076069696	-0.946731909203613	-0.101917813658121	-0.305469231437195
258	0.0001	-9.15556091308594	0.279618530273438	-1.29869934082031	-0.0142078666439118	0.961076233583325	-0.275917759063672	0.321609248187159	-0.256889852352967	-0.911358927776845	-0.946765878137736	-0.101686169164545	-0.305441148168874
259	0.0001	-9.51062255859375	0.24908203125	-1.25079895019531	-0.0170592313029936	0.962853521128529	-0.269484840905283	0.321237058795541	-0.249956663401264	-0.913415797147004	-0.94684514820732	-0.102150689041737	-0.305040164641572
260	0.0001	-9.67647766113281	0.14609619140625	-1.44240051269531	-0.0206458768023638	0.96428810965749	-0.264049596372057	0.320703733995525	-0.243762109042005	-0.915275449903865	-0.946954519907049	-0.103578355695473	-0.304218114942277
261	0.0001	-9.7477294921875	-0.188607788085938	-1.22205871582031	-0.024851402471842	0.965579058085267	-0.258919853202397	0.320199668319889	-0.237666603748169	-0.917053301542852	-0.947024065271319	-0.105696111801615	-0.303271745711671
262	0.0001	-9.68186645507813	-0.525108032226563	-1.25319396972656	-0.0302142488522466	0.966723626230516	-0.254032536605088	0.31975133427375	-0.231445524350234	-0.918799245476618	-0.947019632001603	-0.108988071576509	-0.302118216692709
263	0.0001	-10.0518969726562	-0.720302124023438	-1.50646728515625	-0.0366880702107423	0.967674792756214	-0.249518498248987	0.319003969944994	-0.225282664573744	-0.920589044146131	-0.94704300465372	-0.113372027003013	-0.300426914289787
264	0.0001	-9.45314208984375	-0.925675048828125	-1.47593078613281	-0.0432633291711135	0.968732136922402	-0.244307861606597	0.318132364335513	-0.218449637708222	-0.922535394739651	-0.947058648189925	-0.117634190093285	-0.298734186543436
265	0.0001	-9.78964233398438	-1.20649108886719	-1.5376025390625	-0.0490796396129336	0.96965344819335	-0.239506533067914	0.316966754517261	-0.212279239993328	-0.924375248910663	-0.947165912343903	-0.121283612555869	-0.296929317884137
266	0.0001	-9.32261352539063	-1.5471826171875	-1.53161499023437	-0.0546847630610301	0.970355072770134	-0.235415822404158	0.315538614170198	-0.206892887536643	-0.926083536218143	-0.94733571644719	-0.124925441107956	-0.294870606380956
267	0.0001	-8.92324401855469	-1.97948364257813	-1.62082946777344	-0.0596749963652495	0.971225869564725	-0.230562800765976	0.314581146490443	-0.200907337122606	-0.927725683681907	-0.947352942192911	-0.127892737004675	-0.293540202936305
268	0.0001	-9.3645263671875	-1.89146667480469	-1.56813903808594	-0.0629263329514194	0.972516638231832	-0.22416883142744	0.313720012226928	-0.19395315993301	-0.929495522141089	-0.947428113658035	-0.128815993239416	-0.292893170518057
269	0.0001	-9.12382690429687	-2.30760131835938	-1.30169311523438	-0.0656665442806424	0.973641772152307	-0.218425283523576	0.311942867864096	-0.187895729548702	-0.931336052134827	-0.94782886226943	-0.129293829464043	-0.291382143432917
270	0.0001	-9.07892028808594	-2.14653625488281	-1.29151428222656	-0.0687197658105642	0.975097655824928	-0.210860511693564	0.309982095512222	-0.180028399685634	-0.933542112477247	-0.948255605967501	-0.129515778619286	-0.289891305216019
271	0.0001	-8.93162658691406	-2.32017517089844	-1.33043334960937	-0.0715029103228679	0.976504526626111	-0.20328857147925	0.30809379980694	-0.172221283297557	-0.935637771843283	-0.948665138147218	-0.129532772139165	-0.288540667161602
272	0.0001	-9.19328247070313	-2.25431213378906	-1.29750183105469	-0.0736040918606224	0.978065633821413	-0.1948590608591	0.306782628596406	-0.163709212426881	-0.93759464192051	-0.94892932110503	-0.128790177048127	-0.288003878173645
273	0.0001	-9.34177368164062	-2.32436645507813	-1.31905700683594	-0.0756457141237687	0.979584067443269	-0.186259981601002	0.305257240630951	-0.15507668927379	-0.939558001129392	-0.949260629636078	-0.127930743979627	-0.28729424248971
274	0.0001	-8.995693359375	-2.28365112304688	-1.39569763183594	-0.0763833130217308	0.981129666079807	-0.177623669115215	0.303422124529938	-0.146822726628728	-0.941476553765968	-0.949789768231666	-0.125808049358668	-0.286481641434498
275	0.0001	-8.89570129394531	-2.21479431152344	-1.45317810058594	-0.07601821817971	0.982774747328109	-0.168448883994386	0.301628365988679	-0.138357417780352	-0.94333321460455	-0.950390214246644	-0.122519471755819	-0.285915056799906
276	0.0001	-8.90947265625	-1.98127990722656	-1.70345764160156	-0.0748236927951931	0.984504242082555	-0.15859638179336	0.299857787611364	-0.129468349414976	-0.945157793021133	-0.951045068440665	-0.11827655651572	-0.285523963921551
277	0.0001	-9.43697570800781	-1.79566589355469	-1.56275024414063	-0.0729874939151824	0.986282390285478	-0.14805361307562	0.298087449157853	-0.12009067975639	-0.94695411783793	-0.951744029866511	-0.113248731773968	-0.285233284111519
278	0.0001	-9.97525634765625	-1.00830322265625	-1.66753234863281	-0.0710794803023088	0.988185999440344	-0.135779740720187	0.29645712174856	-0.109044126889955	-0.948800586717444	-0.95239743933114	-0.107693123740074	-0.285203977276952
279	0.0001	-9.42859313964844	-0.161065063476563	-1.68729125976563	-0.0693324061913307	0.989900948049274	-0.123649223624206	0.29468824173352	-0.0980934040782716	-0.950545382535912	-0.953074948593093	-0.102341570866806	-0.28491111813474
280	0.0001	-9.26513305664063	-0.211959228515625	-1.64717468261719	-0.0685718394427394	0.99140143584912	-0.111449970084082	0.293637431087402	-0.0867080301303385	-0.951976247905014	-0.953454226431364	-0.0980046453349018	-0.285166841678603
281	0.0001	-9.81419128417969	0.065863037109375	-2.07288940429688	-0.0680490307789308	0.992650139634361	-0.100075120254396	0.292276648964482	-0.0760719303729623	-0.953303425924519	-0.953909686437947	-0.0941209949650701	-0.284951835275093
282	0.0001	-9.63935485839844	0.243693237304688	-2.10701843261719	-0.0679964905784588	0.993713666270855	-0.0889360823038112	0.290596048749523	-0.0655507544422173	-0.95459783942937	-0.954426746125746	-0.0907537771037263	-0.284312043749871
283	0.0001	-9.35195251464844	0.207169189453125	-1.50766479492188	-0.0690112508790869	0.994569517348394	-0.0779032888489757	0.289185869443044	-0.05479292285602	-0.95570354635701	-0.954782163724572	-0.0884828275219405	-0.283834122450328
284	0.0001	-10.0866247558594	0.135318603515625	-1.63699584960938	-0.0699521819040216	0.995270496423292	-0.0674042372273499	0.287659363794591	-0.0445737064079095	-0.956694974962424	-0.955174739337341	-0.0863123609131142	-0.283180849785868
285	0.0001	-9.3357861328125	0.235909423828125	-1.86212768554688	-0.0711470066768034	0.995780873737218	-0.0579530408181791	0.286031374073259	-0.0352927268781035	-0.957570089588888	-0.955575301316801	-0.0847046334544354	-0.282313599716087
286	0.0001	-9.60582458496094	0.293988647460938	-1.60107055664063	-0.0725592820099119	0.99618991200894	-0.0483819161033026	0.28454576467166	-0.0258170333403883	-0.958314764885172	-0.955912578848938	-0.0833015005934601	-0.281588354867973
287	0.0001	-9.71779174804688	0.234113159179688	-1.75854309082031	-0.0742748679087345	0.996485950422749	-0.0387168517213133	0.282755746890801	-0.0161868395754724	-0.959055354932542	-0.956311890335661	-0.0821811221304992	-0.280559853806646
288	0.0001	-9.61540466308594	0.323926391601563	-1.70106262207031	-0.0765180821511543	0.996659711431292	-0.0285377419149456	0.280636718933658	-0.00593644798487081	-0.959795702517715	-0.956759120724783	-0.0814504646703614	-0.279245065694851
289	0.0001	-9.70761291503906	0.359851684570313	-1.61484191894531	-0.0785698673359821	0.996735876234744	-0.0185571811804107	0.278382721350471	0.00406229267643721	-0.960461638084373	-0.957251187724681	-0.0806293420831858	-0.277793219490541
290	0.0001	-9.57828186035156	0.125139770507812	-1.57532409667969	-0.0807694100402931	0.996690979284545	-0.00913204328493072	0.275753261780624	0.0135401239026374	-0.961133083221074	-0.957829024940824	-0.0801483428245156	-0.275934416344527
291	0.0001	-9.56331298828125	-0.13412109375	-1.39569763183594	-0.0833288422986498	0.99652180868476	-0.000767370067598083	0.273019434561467	0.0220892019676903	-0.961754883277526	-0.958392765202714	-0.0803514279405444	-0.273910488362552
292	0.0001	-9.60103454589844	-0.314346313476562	-1.51904113769531	-0.0860865004455709	0.99626657471868	0.0064827879299772	0.270323418311547	0.0296202585155597	-0.962313820849432	-0.958913115956496	-0.0810897797739135	-0.271864090425387
293	0.0001	-9.27650939941406	-0.511935424804688	-1.39869140625	-0.0886436686561026	0.995982932017135	0.0126609295763976	0.267949105078046	0.036086351665369	-0.962757005849014	-0.959346432262643	-0.0819498282733698	-0.270071561907032
294	0.0001	-9.31243469238281	-0.565823364257813	-1.25798400878906	-0.0911156341479469	0.995697252184861	0.0168796684012075	0.266196566531051	0.0406858588974094	-0.96305973275434	-0.959602693400189	-0.0832564884996798	-0.268758307670303
295	0.0001	-9.75371704101562	-0.652642822265625	-1.16517700195313	-0.0938523931634272	0.995392667228111	0.0196256547917321	0.264180887695977	0.0439050882975387	-0.963473301030055	-0.959895925021908	-0.0852395521462435	-0.267084316043164
296	0.0001	-9.685458984375	-0.762813720703125	-1.09751770019531	-0.0966675010796418	0.995075774928368	0.0218996891696196	0.262168033446594	0.0466819468318506	-0.963892482634207	-0.960168379230312	-0.0874356791630102	-0.265389686189083
297	0.0001	-9.81299377441406	-0.687969360351563	-1.12326416015625	-0.0992264919411509	0.994783129078024	0.0236776138744741	0.259699673024478	0.0488599193053006	-0.964452584690641	-0.960578046349193	-0.0895501780412274	-0.263193051741022
298	0.0001	-9.12262939453125	-1.0873388671875	-1.3651611328125	-0.103232137976068	0.994358686267708	0.024370653106736	0.258594694829348	0.0504896400523447	-0.964665527555277	-0.96045401217081	-0.0932823632384144	-0.262348034514554
299	0.0001	-8.6987109375	-0.658031616210938	-1.47772705078125	-0.105493143570658	0.994149554887245	0.0231917911570517	0.257793374130058	0.0498652151631368	-0.964912450210574	-0.960423746538069	-0.095812957548683	-0.261545606446665
300	0.0001	-7.79638732910156	-1.025068359375	-1.32205078125	-0.106335172206266	0.994100632087233	0.0213720479979806	0.258958667832868	0.0484392135370967	-0.964673027997639	-0.960017312086657	-0.0970441954764519	-0.262581767490125
301	0.0001	-6.50786682128906	0.01676513671875	-2.45489501953125	-0.10659429138112	0.994112248245679	0.01945494623171	0.26155909297594	0.0469123916885293	-0.96404671483682	-0.959283325158194	-0.0976732583360658	-0.265019691116445
302	0.0001	-8.50471435546875	-0.36164794921875	-1.10829528808594	-0.105844678013903	0.994233540596057	0.0172212336945215	0.264065865828556	0.0448003380401645	-0.963463620597946	-0.958679363833575	-0.0974299567141191	-0.267285018088064
303	0.0001	-15.5442755126953	-1.37713623046875	-1.00411193847656	-0.105294730515597	0.994358859912766	0.0127858296028364	0.26340373485429	0.040285830215431	-0.963844139033207	-0.958922046983204	-0.0981198736079417	-0.266159723122607
304	0.0001	-14.9850384521484	-1.67411865234375	-0.982556762695313	-0.105672114068224	0.994366582119293	0.00827675496484603	0.259878838758063	0.0356497033663256	-0.964982946904065	-0.959841858575731	-0.0998208345701884	-0.26218201218161
305	0.0001	-10.4464764404297	-0.738264770507813	-0.715512084960938	-0.10680721577667	0.99426943673538	0.00452833655389312	0.255629695311305	0.0318611820098355	-0.966249617829671	-0.960856741420429	-0.10204485413212	-0.257567797311832
306	0.0001	-6.84077453613281	0.044307861328125	-1.43102416992188	-0.108046259141788	0.994141884527985	0.00281412732681491	0.254688169961587	0.0304162660525142	-0.966544767116889	-0.960968231507725	-0.103714821441145	-0.256482541016632
307	0.0001	-6.58450744628906	0.0089813232421875	-3.05364990234375	-0.108130503295595	0.994136483182801	0.000668626930949434	0.25374555702166	0.0282497452030867	-0.966858388900737	-0.961208087018003	-0.104377223094372	-0.255312374847556
308	0.0001	-5.36604125976563	0.28021728515625	-1.99924255371094	-0.108674232885206	0.994075575564805	-0.00191341901156883	0.254573915603295	0.0259697700610684	-0.96670455286886	-0.960927693742468	-0.105542982279624	-0.255887956516723
309	0.0001	-6.67132690429688	0.1101708984375	-1.40527770996094	-0.108301665581169	0.994103280772461	-0.00542368783904629	0.255846839195565	0.0226001656320253	-0.966453117014501	-0.960631638093387	-0.106056115669186	-0.256785817799934
310	0.0001	-11.5380065917969	-1.30169311523438	-0.082628173828125	-0.111519704547792	0.993714502120193	-0.00973877680156909	0.253909623584216	0.0190176655670244	-0.967040966788741	-0.960777424042059	-0.110316892053749	-0.254434519628738
311	0.0001	-16.4376177978516	-1.98906372070313	-0.834065551757812	-0.115119830468818	0.993271595907366	-0.0126079893902428	0.252944224372372	0.0170374340587525	-0.967330835442225	-0.960607434902255	-0.114548079880579	-0.253203659938365
312	0.0001	-15.6981555175781	-0.741258544921875	-1.08075256347656	-0.113764542079836	0.993388374689025	-0.0154001947410368	0.251495172033641	0.0137987700938134	-0.967760183303522	-0.961149211834008	-0.113969868722371	-0.251402190949624
313	0.0001	-9.09927795410156	-0.726888427734375	-0.700543212890625	-0.111951313926955	0.993564828575475	-0.0171998467381586	0.249358326526126	0.011333540540844	-0.968344967380375	-0.961918566356902	-0.112696416431921	-0.24902246770379
314	0.0001	-4.86787719726563	0.824485473632813	-2.16689392089844	-0.113460669092026	0.993394856257485	-0.0171270584269866	0.25002987130498	0.0118651014558764	-0.968165421207893	-0.961567335148405	-0.114130972696343	-0.249724610415116
315	0.0001	-5.16605712890625	0.79275146484375	-2.89976989746094	-0.115294652906147	0.993171860291708	-0.0177988464783488	0.252360451754881	0.0119560061668754	-0.967559432958312	-0.960739998855738	-0.11604615392699	-0.252015762914604
316	0.0001	-5.1732421875	-0.0724493408203125	-2.47046264648438	-0.11715598937723	0.992971863303681	-0.0167735756551191	0.254678365028492	0.0137146348101915	-0.966928559500875	-0.959902809944557	-0.117553338868953	-0.254495202275611
317	0.0001	-7.59460693359375	-0.1868115234375	-1.28253295898438	-0.11889593621135	0.992804650520689	-0.0142366518858681	0.25567742830587	0.0167582001184298	-0.966616891733063	-0.959423164723118	-0.118566810842172	-0.255830221747535
318	0.0001	-13.3282836914063	-1.55855895996094	-1.12805419921875	-0.122775416595262	0.992347910918107	-0.0131080424292913	0.252978222693706	0.0185218984605818	-0.967294659408471	-0.959650048675346	-0.122076054056003	-0.253316444597507
319	0.0001	-18.1548468017578	-2.42016723632813	-1.54478759765625	-0.12435997947875	0.992146197704055	-0.0134356944528687	0.248887678413808	0.0180830507733704	-0.968363530296609	-0.96051523623409	-0.123769647555909	-0.249181771616739
320	0.0001	-15.5556518554688	-0.83586181640625	-1.40527770996094	-0.12409671525146	0.992144500473494	-0.0157890925641779	0.244433828379218	0.0151441213205538	-0.969547708539042	-0.961692315040355	-0.124177074251372	-0.244393014267373
321	0.0001	-8.3873583984375	-0.425714721679688	-1.27774291992188	-0.125162453318974	0.991971982870153	-0.0180539602257584	0.2398758121447	0.0125992187308683	-0.970721821344969	-0.962701384141052	-0.125828633021381	-0.239527034142024
322	0.0001	-5.62949340820313	-0.0293389892578125	-1.54418884277344	-0.127853317045242	0.991570989460574	-0.0209881438127867	0.236366951580021	0.00991148288495969	-0.971613311306401	-0.963215548836966	-0.129184888308186	-0.23564182801766
323	0.0001	-4.45892761230469	0.3784130859375	-1.78428955078125	-0.129342291154864	0.991346316849196	-0.0224288160263487	0.235498853454103	0.00873846511609855	-0.971835340605196	-0.963229392066403	-0.130981370037682	-0.234591174093227
324	0.0001	-4.79902038574219	0.51492919921875	-1.8537451171875	-0.130567924068705	0.991186595334109	-0.0223863894892692	0.236616583015041	0.00922614492055573	-0.971559298700903	-0.962790013370867	-0.132151471728019	-0.235735823907703
325	0.0001	-7.43833190917969	0.09580078125	-1.19451599121094	-0.129570012273794	0.991325200515364	-0.0220444719270484	0.238937464417701	0.00963783805426877	-0.970987126678454	-0.962351547001931	-0.1310780641481	-0.238113504619494
326	0.0001	-10.51892578125	-0.291593627929688	-0.786763916015625	-0.129918306950853	0.991290222719245	-0.021562185887642	0.239758912103486	0.0103067511981557	-0.970777747451337	-0.962100253396691	-0.131291527605435	-0.239009701043817
327	0.0001	-15.9729840087891	-1.93517578125	-0.571810913085938	-0.132769357574859	0.990887511077794	-0.0226768181016072	0.236259482280362	0.00942005794502987	-0.971644337986347	-0.962576622779597	-0.134362207850148	-0.235357265406995
328	0.0001	-17.5405242919922	-1.82440612792969	-0.940643920898438	-0.133503928791701	0.990734489248518	-0.0249373777823327	0.231013286783796	0.00664043696872896	-0.972927934600612	-0.963747665276824	-0.135650567305643	-0.229759355115585
329	0.0001	-12.9378955078125	-0.825682983398437	-0.31374755859375	-0.133464214443189	0.990660388937536	-0.0279158960664367	0.225227789603192	0.00288831650212173	-0.974301852825008	-0.965121622518905	-0.136321866983669	-0.223509736540859
330	0.0001	-5.96539489746094	0.153880004882813	-1.04123474121094	-0.134539916010865	0.990448085846673	-0.0301927183680374	0.221213850245511	0.000320451798976662	-0.97522527129387	-0.965900327911398	-0.137885773571122	-0.219143948096558
331	0.0001	-4.39486083984375	0.458047485351563	-1.62322448730469	-0.1363262508699	0.990115962955113	-0.0329474312386735	0.220063710179801	-0.00216055711523133	-0.975483108749122	-0.965912582372575	-0.140234488961959	-0.217594051664839
332	0.0001	-4.49605041503906	0.401165771484375	-2.04474792480469	-0.137559684013518	0.989904620407764	-0.034149316676356	0.221685476077201	-0.00283309761958506	-0.975114107812159	-0.965366709095836	-0.141706796072874	-0.219057757032787
333	0.0001	-5.43908935546875	0.63228515625	-1.58430541992188	-0.137010762914635	0.989926060647766	-0.0356993738873077	0.224684413658081	-0.00404284250593834	-0.974423198453114	-0.964751245194674	-0.14152755871161	-0.221867043565415
334	0.0001	-7.37486389160156	0.14609619140625	-0.929866333007813	-0.136483349879194	0.98992981850398	-0.0375666027533876	0.228139122632916	-0.00549346299402531	-0.973613045613408	-0.964014956279226	-0.14145238174386	-0.225091954029797
335	0.0001	-11.6661401367188	-1.10350524902344	-0.749042358398438	-0.137023424091364	0.989819469589995	-0.0384967384444466	0.229644920402245	-0.0060621488038709	-0.973255598948872	-0.963580713683978	-0.142199395119887	-0.226476356920129
336	0.0001	-15.5023626708984	-1.16996704101563	-0.899329833984375	-0.136916534657024	0.989736505206278	-0.0409330282238579	0.229484822975618	-0.00850613182851279	-0.973275069928931	-0.963634048050068	-0.14265095857855	-0.225964876596474
337	0.0001	-18.9020928955078	-1.15859069824219	-1.33582214355469	-0.136956981583028	0.98961037011164	-0.0437504350054765	0.227814444568784	-0.0115158859223383	-0.973636463582399	-0.964024566098542	-0.143313292261835	-0.223870355830314
338	0.0001	-13.4432446289063	-0.373623046875	-0.973575439453125	-0.138284167756689	0.989283280839074	-0.0468623430924949	0.223508950069555	-0.0149236428870385	-0.974587622598289	-0.964842597622351	-0.145244191399377	-0.219049963885174
339	0.0001	-5.3504736328125	0.36643798828125	-1.34240844726563	-0.139132055026877	0.989067898265852	-0.0488565643897302	0.220887003956541	-0.0170968985907524	-0.975149541117505	-0.965324402854865	-0.146466339745852	-0.21609351812202
340	0.0001	-4.20864807128906	0.340691528320313	-1.90823181152344	-0.140066044326031	0.988899570103619	-0.0495897517208647	0.221385717268759	-0.0175374788291078	-0.975028615490702	-0.965075057918427	-0.147546864030373	-0.216471835347112
341	0.0001	-5.09300903320313	0.355061645507812	-2.50159790039063	-0.140897136848913	0.988815581194027	-0.0489054517993275	0.223630963660287	-0.0163338957122918	-0.974537016199606	-0.96443620261796	-0.148246248649933	-0.218828382165276
342	0.0001	-5.27742553710938	0.365839233398437	-1.96211975097656	-0.141272461961246	0.988764865928559	-0.0488480439392139	0.227068793715996	-0.0156633293230122	-0.97375275251723	-0.963577632789269	-0.148656315102312	-0.222304848279185
343	0.0001	-6.6054638671875	-0.231718139648438	-1.56095397949219	-0.142502574253887	0.988630030986082	-0.0479966474191091	0.231136853194793	-0.0139127745693152	-0.972821766717312	-0.962428579909296	-0.149723400095784	-0.226526228144852
344	0.0001	-12.9845983886719	-1.14901062011719	-0.856818237304688	-0.144614440413156	0.988365162477559	-0.0471271601594964	0.233954388349524	-0.0121235776115795	-0.972171982232515	-0.961432268959177	-0.151615713125669	-0.229479122661311
345	0.0001	-19.62	-2.27945983886719	-2.87162841796875	-0.147517177904897	0.987880561352732	-0.0482771035210879	0.234694904117416	-0.0124542363542989	-0.971989297254938	-0.960810587058808	-0.154715508266761	-0.230013319826192
346	0.0001	-17.0148175048828	-1.14781311035156	-2.40400085449219	-0.147156764614683	0.987627593101778	-0.0541906262385703	0.229941134428859	-0.0191276377523764	-0.973016550820994	-0.962014532803797	-0.155646621608063	-0.224281447864705
347	0.0001	-10.1189575195312	-1.03345092773438	-1.23403381347656	-0.147129624006388	0.987202204593786	-0.0615197609301858	0.223911186448844	-0.0273400746786348	-0.974226000935942	-0.963440010754593	-0.15711246787488	-0.217023081987735
348	0.0001	-5.45944702148438	0.32811767578125	-1.76213562011719	-0.147447478762472	0.986731034304722	-0.0679787242196014	0.218861309149283	-0.0344761444030155	-0.975146718614468	-0.964551174569837	-0.158660837660201	-0.210873825376482
349	0.0001	-4.55472839355469	0.1197509765625	-2.05732177734375	-0.149104315456279	0.986113348472276	-0.0731325309086789	0.217360757345397	-0.039464261380989	-0.975293224235608	-0.964635788408532	-0.161316570873693	-0.20845805257414
350	0.0001	-5.82528625488281	0.392783203125	-2.29083618164063	-0.150823029139555	0.985395004388844	-0.079051244181734	0.218885798709663	-0.0446930566649044	-0.974726391255095	-0.964023558324382	-0.164314381633072	-0.208948230392457
351	0.0001	-6.53720581054688	-0.1916015625	-1.75195678710938	-0.150609963405114	0.984689627525536	-0.0877666016587789	0.222499678869873	-0.0527380232778304	-0.973505312673511	-0.963229220811907	-0.16614764020102	-0.211150254154994
352	0.0001	-8.42867248535156	-0.546663208007813	-1.12925170898437	-0.14854750939328	0.984036243475201	-0.0980117798035895	0.228759311187569	-0.0622294481652641	-0.971491983150677	-0.962082540636739	-0.166733821728708	-0.215863423705122
353	0.0001	-13.2103289794922	-1.05440734863281	-1.47173950195312	-0.147813762749716	0.9828863016051	-0.109934569898728	0.232674633203389	-0.0734767509016678	-0.969775067807274	-0.961256264793858	-0.168925087521013	-0.217831834681203
354	0.0001	-16.8226171875	-0.194595336914062	-3.29015808105469	-0.15073364409779	0.98096852048284	-0.122393342787548	0.232113713033528	-0.0852273974121217	-0.968947632719202	-0.960938391760258	-0.174462180864695	-0.214849609469378
355	0.0001	-13.8402191162109	0.555045776367188	-2.39082824707031	-0.154080072166133	0.978787190289452	-0.135036911570727	0.229271530469342	-0.0975210267458493	-0.968464875283911	-0.961089952438129	-0.180181257259783	-0.209381990282734
356	0.0001	-11.7445770263672	1.03285217285156	-1.77111694335938	-0.157433040835069	0.97674523912428	-0.145545784897662	0.22637620286395	-0.107764027745624	-0.968060292079445	-0.961232881475828	-0.185352777621738	-0.204146259817768
357	0.0001	-7.68861145019531	0.9580078125	-1.87709655761719	-0.161573595152058	0.975099192779632	-0.151906344798857	0.224857770735217	-0.113503864121109	-0.967758159753544	-0.960902157500766	-0.190521487161126	-0.200919403344439
358	0.0001	-6.45936767578125	0.994531860351563	-2.45369750976563	-0.166247786362439	0.974025924093104	-0.153737349802071	0.22582859712457	-0.114155610602652	-0.967455394986603	-0.959876616159774	-0.195555607852373	-0.200984790437365
359	0.0001	-6.1456201171875	0.476010131835938	-2.32077392578125	-0.171476702794166	0.973421361441595	-0.151811045342666	0.226808362460538	-0.11094877297794	-0.967599264413041	-0.958725042500096	-0.200352746085202	-0.20175497520336
360	0.0001	-5.18821105957031	0.06466552734375	-2.00762512207031	-0.174897723441034	0.97322462298735	-0.149146302489446	0.229658229599634	-0.106977956452794	-0.967374185313184	-0.957427743441929	-0.203444218507959	-0.204798842876079
361	0.0001	-7.56407043457031	-1.159189453125	-2.25491088867187	-0.176289037572917	0.974342305209163	-0.139925864340046	0.235911313272911	-0.0961880367866761	-0.967002437354206	-0.955650578141124	-0.203482023429145	-0.212901476368098
362	0.0001	-11.1949200439453	-3.50511108398438	-3.17699340820313	-0.17703243128706	0.975575487071737	-0.130046096816993	0.23740906320343	-0.0859021552752458	-0.967604132084985	-0.955142112453148	-0.202171434044995	-0.216402995068756
363	0.0001	-12.4295526123047	-3.08298889160156	-3.06502624511719	-0.17727298793334	0.976960620903202	-0.118837001618252	0.231463939601926	-0.0759748242265778	-0.969872296102789	-0.956555660906955	-0.199438640408952	-0.212662870051843
364	0.0001	-13.7599859619141	-1.4944921875	-2.73151977539063	-0.172733128707675	0.978959918701848	-0.108631228576912	0.224702848344248	-0.0682151661582994	-0.972036687091582	-0.958995253477743	-0.19231268466034	-0.208192063071322
365	0.0001	-11.4990875244141	-1.5376025390625	-2.13875244140625	-0.166636311054055	0.980994199430057	-0.0994118731484275	0.217075718298783	-0.0618491886507224	-0.97419341528688	-0.961826633215864	-0.183915900747679	-0.202643699849776
366	0.0001	-8.3202978515625	-0.909508666992188	-1.85254760742188	-0.161480806515447	0.982614440186086	-0.0916122866481666	0.20922877972778	-0.0566323977247208	-0.976225429530277	-0.964441427387244	-0.176809596644905	-0.196446175003539
367	0.0001	-6.03664672851562	0.0592767333984375	-2.05732177734375	-0.156955696045678	0.983961007034844	-0.0847681904595887	0.202470231155966	-0.0519499887989592	-0.977909507142373	-0.96662852998164	-0.170651502480243	-0.191068965891296
368	0.0001	-5.7049365234375	0.6274951171875	-2.10881469726562	-0.155024011684697	0.984761329303677	-0.0788205563875244	0.199399858469526	-0.0469527157577383	-0.978792694560654	-0.967578034188208	-0.167453177906629	-0.189082471333159
369	0.0001	-7.5826318359375	0.326321411132812	-1.47413452148438	-0.153696409664081	0.984882147324244	-0.0799035014148814	0.201744337543956	-0.0478834765382986	-0.97826703662321	-0.967303797121319	-0.166476210182096	-0.191334877944627
370	0.0001	-11.1781549072266	-0.37122802734375	-1.17176330566406	-0.154040127745008	0.984330759504154	-0.0858172181923686	0.204638008547906	-0.0531879777630032	-0.977391592187609	-0.966641052563902	-0.168118990347484	-0.193238403488266
371	0.0001	-12.4882305908203	-0.290994873046875	-2.47166015625	-0.158799620889707	0.982336682367968	-0.0989814269425349	0.206364948585332	-0.0650145274795484	-0.976312767104879	-0.965503075293217	-0.175464394367935	-0.192395576634275
372	0.0001	-13.0815966796875	-0.152083740234375	-2.67224304199219	-0.166438579450198	0.97869833766796	-0.120198848233131	0.206598152644709	-0.0845812269032872	-0.974763160659721	-0.964165651013556	-0.187071055755576	-0.18811968930471
373	0.0001	-10.3404968261719	0.295186157226562	-2.45309875488281	-0.175320403920208	0.974840191679498	-0.137656662227205	0.206219923914359	-0.100357930427239	-0.973345585483963	-0.962671334854223	-0.199034887611799	-0.183436677257705
374	0.0001	-7.25990295410156	0.405955810546875	-1.96092224121094	-0.186349148508388	0.970918336578469	-0.150304951834255	0.208607383809761	-0.110395335886262	-0.971748850904701	-0.960081743535542	-0.212439293705892	-0.181968657244857
375	0.0001	-8.07061706542969	-0.903521118164063	-1.84835632324219	-0.193920817720389	0.968513607515883	-0.156128499996721	0.210904771158524	-0.114269380093143	-0.970804659174903	-0.95807822956021	-0.221187478917093	-0.182104929128989
376	0.0001	-7.68980895996094	-1.86093017578125	-1.84955383300781	-0.196471420639889	0.967396495540948	-0.159821779763699	0.212764432356119	-0.117052021459052	-0.970067070153672	-0.957146946500861	-0.224594845638635	-0.182830189292238
377	0.0001	-8.08618469238281	-1.48072082519531	-2.30760131835938	-0.193989967199695	0.967790294335759	-0.160467563125283	0.215304730342859	-0.117584395838221	-0.969441995659023	-0.957085035782009	-0.222611446347365	-0.185559635258545
378	0.0001	-9.87885681152344	-2.2177880859375	-2.04594543457031	-0.188159749005615	0.969765857427138	-0.155402994252855	0.214750088992079	-0.113776505024479	-0.97001922980027	-0.9583727396645	-0.215891381655275	-0.186849145555815
379	0.0001	-10.2680474853516	-1.59268798828125	-2.54470825195312	-0.182859214470328	0.971925227194874	-0.148067080829897	0.209256239807865	-0.108678708425289	-0.971802842369009	-0.960611437463019	-0.208687064949421	-0.183508515164906
380	0.0001	-10.6021527099609	-0.783770141601563	-1.68908752441406	-0.177121343730235	0.974594640476034	-0.137088717079805	0.203594619096755	-0.0999950158622687	-0.973935433115333	-0.962900441722842	-0.200415277756202	-0.180710973025606
381	0.0001	-11.4745385742187	-0.3784130859375	-1.85554138183594	-0.171825045011117	0.977028224538832	-0.126063485440572	0.198392713701314	-0.0910258526910775	-0.975886584236145	-0.964943773002944	-0.192691833237322	-0.178194759593216
382	0.0001	-10.4093536376953	-0.695154418945312	-1.93337951660156	-0.167830141560485	0.978756021891088	-0.117769661609941	0.191178475652499	-0.0848821104071655	-0.977878222367189	-0.967100736237428	-0.186632464873499	-0.172871307695255
383	0.0001	-8.46160400390625	0.351469116210938	-1.8441650390625	-0.164955446724178	0.97996612332934	-0.111606889226835	0.184694172595953	-0.0804642685768837	-0.979496587074954	-0.968853839959941	-0.182186439147516	-0.167721012951942
384	0.0001	-7.60418701171875	0.61072998046875	-1.86512145996094	-0.163731790004083	0.980842493398277	-0.10554574404641	0.180265456309593	-0.0754409674413721	-0.980720666496329	-0.96989497689366	-0.179601401931503	-0.164459935001463
385	0.0001	-7.8221337890625	-0.09340576171875	-1.31965576171875	-0.165346543181784	0.980619128747229	-0.105103020855064	0.181530683504825	-0.0744880020977562	-0.980560119773263	-0.969384924374268	-0.181211649400667	-0.165696127044008
386	0.0001	-9.359736328125	-0.8574169921875	-1.24541015625	-0.169718191006863	0.979281939231089	-0.110465465812426	0.18425758509469	-0.0785827189211872	-0.979731544159943	-0.968114083141254	-0.186632365314144	-0.167103208349861
387	0.0001	-12.4127874755859	-1.56514526367188	-1.2693603515625	-0.176952166261794	0.976471250463783	-0.123255133251945	0.186911002397556	-0.0896123263930269	-0.978281098734495	-0.966308547016945	-0.196146700140803	-0.166656124957576
388	0.0001	-12.51158203125	-1.58729919433594	-1.75854309082031	-0.18401459532627	0.972722260946975	-0.141244581365497	0.187653360551982	-0.106289117287308	-0.976467531370006	-0.964844466730497	-0.206189297987287	-0.162975852245211
389	0.0001	-9.52140014648437	-1.29151428222656	-1.8441650390625	-0.189902908522584	0.968267238644116	-0.162466734758728	0.188713806929436	-0.126394082034168	-0.973864279610326	-0.963495710633349	-0.215599375219966	-0.158722792931253
390	0.0001	-8.18857177734375	-0.8190966796875	-2.04774169921875	-0.194578195038326	0.963561326153441	-0.183545353406319	0.190696311027661	-0.146391331626424	-0.970672187190446	-0.96217162864848	-0.223873063958275	-0.155263029269255
391	0.0001	-7.59520568847656	-0.790955200195313	-2.38304443359375	-0.198333752878039	0.958967131780252	-0.202597538569622	0.19358141635498	-0.164306206929728	-0.967227845756296	-0.960827746118581	-0.231053047003328	-0.153050748966365
392	0.0001	-8.12330749511719	-1.14541809082031	-1.97289733886719	-0.199693400347281	0.955293148045872	-0.218031069240945	0.198092175189523	-0.178559581868952	-0.963782115341153	-0.959625987552663	-0.235651176571206	-0.153578927572054
393	0.0001	-7.71316040039063	-1.5663427734375	-3.93441833496094	-0.200584153388037	0.951423197340255	-0.233580600590998	0.201294986994918	-0.193313406507837	-0.960265721076751	-0.95877334423748	-0.239632690647963	-0.152741114152337
394	0.0001	-10.6027514648438	-1.14721435546875	-0.997525634765625	-0.202699862109523	0.948116948291484	-0.244922473985593	0.200480540079721	-0.204636923108052	-0.958087304346641	-0.958498992670375	-0.243306354342242	-0.148599121755694
395	0.0001	-12.7600653076172	-1.23942260742188	-1.29510681152344	-0.20261543288368	0.945236240358332	-0.25588168412492	0.201092849969791	-0.215570717021557	-0.95555791643094	-0.958388570491315	-0.245066757998832	-0.146402295322019
396	0.0001	-11.2799432373047	-2.02858154296875	-1.32205078125	-0.202761241860177	0.940841512733997	-0.271486881295807	0.201898464784125	-0.231122080630541	-0.951745550955098	-0.958188336767429	-0.247789894389207	-0.143091856936211
397	0.0001	-7.69040771484375	-2.0932470703125	-1.41485778808594	-0.204866040155041	0.935506823999991	-0.287848723882257	0.202095855146234	-0.247320056679332	-0.947623371860807	-0.957698893663299	-0.252308881757228	-0.1383945709286
398	0.0001	-6.91861267089844	-1.24421264648438	-2.00642761230469	-0.205575312551019	0.9301182573877	-0.304333399651795	0.205016370294998	-0.263144243260609	-0.94272127118776	-0.956925848109776	-0.256193548929066	-0.136593509020434
399	0.0001	-7.7646533203125	-1.11967163085938	-2.29263244628906	-0.204297897963813	0.925368948308889	-0.319303426842351	0.211079779741768	-0.276866885974885	-0.937438026770163	-0.955880586408017	-0.258915115349164	-0.138763350968455
400	0.0001	-8.20294189453125	-1.95792846679688	-2.06690185546875	-0.202685481247607	0.920747704158886	-0.333380054858666	0.217213925383335	-0.289691628454528	-0.932146378538761	-0.954849048965851	-0.261347327687706	-0.141282935981336
401	0.0001	-8.10294982910156	-1.98966247558594	-1.27654541015625	-0.202936493202193	0.916687764497888	-0.344238757473156	0.222398321174805	-0.29921666519591	-0.927905369101649	-0.953601471509679	-0.264863983374306	-0.143147839123302
402	0.0001	-13.3234936523438	-3.61767700195313	-0.631686401367188	-0.201711696169917	0.914284095627585	-0.351279068705644	0.224954500136749	-0.305817344932247	-0.925133084700151	-0.953261697802068	-0.265631971006956	-0.143985386350419
403	0.0001	-12.3600970458984	-3.65899108886719	-1.42144409179688	-0.200605710711213	0.912140965241616	-0.357430004837511	0.22406907358866	-0.312455997622938	-0.923127455886009	-0.953703517394777	-0.265273649421778	-0.141702123594824
404	0.0001	-8.92025024414063	-2.86743713378906	-1.41066650390625	-0.201866415944656	0.90925503215633	-0.364012687432803	0.22127231227265	-0.31971532799006	-0.921314643794249	-0.954090411824358	-0.26652841414491	-0.13665317602685
405	0.0001	-8.152646484375	-1.82201110839844	-1.02147583007813	-0.20310561198503	0.906845323881144	-0.369296180504334	0.217882059151026	-0.325843899200531	-0.919974544024944	-0.954607520754103	-0.267315005019729	-0.13140460193999
406	0.0001	-7.7646533203125	-1.92858947753906	-1.19451599121094	-0.20258619610721	0.905923440609889	-0.371835384142435	0.215659043421807	-0.329113334545721	-0.919334318958336	-0.955222492478691	-0.26643410588312	-0.128696764081544
407	0.0001	-8.79391296386719	-2.45788879394531	-1.3364208984375	-0.202297727170648	0.905741815984278	-0.372434413500004	0.213397384955065	-0.33038990713093	-0.919404190419184	-0.955791392342456	-0.265469907981145	-0.126445807682787
408	0.0001	-8.92264526367187	-2.67882934570313	-0.570613403320313	-0.203805701934786	0.905925186205347	-0.371164105023203	0.210270493529671	-0.329768449107813	-0.920347265723008	-0.956163979351689	-0.265616880058166	-0.123280645757995
409	0.0001	-9.09448791503906	-3.55061645507813	-0.551453247070313	-0.204971101525502	0.905858446591685	-0.370684936675233	0.206577628567363	-0.33015621378323	-0.921044275741295	-0.956719672064345	-0.265362674916464	-0.119457606899988
410	0.0001	-9.23639282226562	-2.48423400878906	-0.594563598632812	-0.206956026185384	0.90487331308816	-0.371985874041492	0.204719843987172	-0.331747109933488	-0.920887420116404	-0.956691689471286	-0.266736091130607	-0.116588459913243
411	0.0001	-9.62857727050781	-2.30161376953125	-0.516725463867188	-0.207435448300938	0.904014542768189	-0.37380240937133	0.204758718441047	-0.333525864116609	-0.920236037757515	-0.956579532506612	-0.267428877327958	-0.115919772086297
412	0.0001	-8.56638610839844	-1.94056457519531	-0.643062744140625	-0.206815009199165	0.902503344831479	-0.377776739011208	0.205793831895563	-0.337358297679041	-0.918606704602596	-0.956491741064025	-0.267725776784927	-0.115958862193527
413	0.0001	-8.62805786132813	-1.73100036621094	-0.825084228515625	-0.204901606930431	0.901063255711439	-0.382230742724901	0.208206103170838	-0.341453259327032	-0.916547811244652	-0.956381487733709	-0.267384892807445	-0.117642547654364
414	0.0001	-9.608818359375	-1.97948364257813	-0.98914306640625	-0.202605396907449	0.900065443186325	-0.385789127796235	0.210246669562965	-0.344791215973868	-0.914830779611696	-0.956424273574054	-0.266460532479138	-0.119379200656052
415	0.0001	-9.31961975097656	-2.25431213378906	-0.95082275390625	-0.200172589145799	0.898788858797102	-0.390012207317759	0.211652179630741	-0.349001215335859	-0.912908268421121	-0.956626515110377	-0.265286145503864	-0.120370144103423
416	0.0001	-9.61181213378906	-1.4322216796875	-1.24900268554687	-0.197888401035024	0.896681518397189	-0.395982872484042	0.212801311199993	-0.355038092824657	-0.91030959271832	-0.956846791648154	-0.264405384227216	-0.120557082348127
417	0.0001	-9.38009399414063	-0.978964233398438	-1.43341918945312	-0.196003131868327	0.893917337774206	-0.403106146721287	0.213312726544736	-0.362367843074618	-0.907296658761345	-0.957120918688887	-0.263820657894952	-0.119658712495232
418	0.0001	-9.28908325195312	-1.01369201660156	-1.18254089355469	-0.194148806084898	0.891605334929111	-0.409079659506259	0.21382728018828	-0.368522957482943	-0.9046926130213	-0.957384006208111	-0.263117381664483	-0.119101251559063
419	0.0001	-9.62917602539063	-0.852626953125	-1.10949279785156	-0.191650260078403	0.889870554823935	-0.414005523476706	0.214208593988701	-0.373730436825799	-0.902463427985523	-0.957802096507031	-0.261640891772174	-0.118992384963901
420	0.0001	-9.71659423828125	-0.772992553710938	-1.47652954101563	-0.189641730812484	0.88824201148159	-0.418404281734287	0.214043534476484	-0.378487952266833	-0.900517759590378	-0.958238685966738	-0.260332477858601	-0.118345349248466
421	0.0001	-9.627978515625	-0.63228515625	-1.42503662109375	-0.188795202646953	0.886425082046471	-0.422619149325256	0.213327341351767	-0.383060887433811	-0.898752358522751	-0.958565499530044	-0.259836353186633	-0.116778648191307
422	0.0001	-9.69683532714844	-0.562230834960938	-1.59208923339844	-0.188649698542526	0.884753280325411	-0.426172411346909	0.212168866035489	-0.386995844918746	-0.897339728475699	-0.958851220745444	-0.259703386518256	-0.11471045072669
423	0.0001	-9.39206909179688	-0.546663208007813	-1.31067443847656	-0.188884441784541	0.883773115223775	-0.428097825805513	0.211575472712506	-0.389081350322282	-0.896577672138823	-0.958936122480649	-0.259924572980422	-0.113493300959674
424	0.0001	-9.54834411621094	-0.459244995117188	-1.42803039550781	-0.189109201159138	0.883182714664809	-0.429215566533008	0.211231086100123	-0.390281869034233	-0.89613698225668	-0.958967746226074	-0.260131419133568	-0.112749751563543
425	0.0001	-9.42559936523438	-0.324525146484375	-1.22625	-0.189694320870287	0.882786793659307	-0.429771499253129	0.210768346808426	-0.390902101256287	-0.895975586284059	-0.958953997130834	-0.260543708759472	-0.111911604459303
426	0.0001	-9.4699072265625	-0.246088256835938	-1.25439147949219	-0.190372852563707	0.882451607635006	-0.430159664763155	0.210765843863259	-0.391216550919328	-0.895838919308261	-0.958820074918838	-0.261206375246045	-0.111513646983034
427	0.0001	-9.88963439941406	-0.304766235351562	-1.29989685058594	-0.191634442410141	0.882121015344646	-0.43027753226201	0.211149966046813	-0.391082429584161	-0.895807024480708	-0.958484184700293	-0.262520565971278	-0.111314959109438
428	0.0001	-9.51661010742188	-0.656834106445312	-1.21547241210937	-0.193799272692074	0.881500605128683	-0.430579290098571	0.21076253793309	-0.391241578313607	-0.895828767121642	-0.958134121356727	-0.264360947487414	-0.109964971402399
429	0.0001	-9.53098022460938	-0.60114990234375	-1.00231567382813	-0.196227048479096	0.880557606194965	-0.43140844639086	0.210354398287724	-0.391916426577496	-0.895629690050378	-0.957729592612754	-0.266495434765624	-0.108324561771044
430	0.0001	-9.67408264160156	-0.48618896484375	-0.985550537109375	-0.198634805177772	0.879128607215915	-0.433217158185816	0.209957483859964	-0.39359314804384	-0.894987312079972	-0.957320254221743	-0.268732814869241	-0.106398332079374
431	0.0001	-9.31482971191406	-0.602347412109375	-0.868793334960938	-0.200629902620892	0.877516522965743	-0.435559862816173	0.209645366123571	-0.395843115582919	-0.894067697833068	-0.956972550618483	-0.270689822061563	-0.104549307004084
432	0.0001	-9.5944482421875	-0.805924072265625	-0.877774658203125	-0.202282384872528	0.875960112820117	-0.437922045024512	0.210023821452863	-0.397960053655271	-0.893038515472334	-0.956541599300636	-0.272620022087267	-0.103472181597373
433	0.0001	-9.25495422363281	-1.24960144042969	-0.990340576171875	-0.204635375697191	0.873990635401584	-0.440754730256641	0.210259113154032	-0.400524281911796	-0.891835974232213	-0.955989261628471	-0.275173888349485	-0.101803058999598
434	0.0001	-9.09688293457031	-1.13943054199219	-0.722098388671875	-0.206850113980072	0.871930962231019	-0.443789846041255	0.211054309530356	-0.40315308634826	-0.890462614261001	-0.955337170204895	-0.277856052787701	-0.100632525329251
435	0.0001	-9.52199890136719	-1.36935241699219	-0.347876586914063	-0.208129301556145	0.870095211504531	-0.44678464247402	0.212348530077229	-0.405696847838871	-0.888998408000624	-0.954772378951021	-0.279900679832134	-0.100326037605989
436	0.0001	-9.60642333984375	-1.2693603515625	-0.5316943359375	-0.209419494726061	0.86820095915769	-0.449856165620021	0.213741301555583	-0.408287448523117	-0.887477332323372	-0.954179297217251	-0.282007896868421	-0.100067051849466
437	0.0001	-9.35374877929688	-1.32085327148438	-0.609532470703125	-0.210404774769404	0.866110203910981	-0.453412555445387	0.214921487308112	-0.411468163188382	-0.885721573055352	-0.95369732360299	-0.283808148867609	-0.0995708269968479
438	0.0001	-9.43278442382813	-1.4130615234375	-0.543070678710938	-0.211005250775636	0.864059687301762	-0.457031334730008	0.216270492959223	-0.414702723662984	-0.883882755155726	-0.95325959634314	-0.285346294467764	-0.0993661623150964
439	0.0001	-9.39506286621094	-1.50946105957031	-0.697549438476563	-0.21146639329515	0.861991538927532	-0.460708748912029	0.217707307740469	-0.417984503954407	-0.881982132818111	-0.95283025385592	-0.286809241955927	-0.0992721817304757
440	0.0001	-9.4124267578125	-1.32444580078125	-0.762813720703125	-0.211797918642481	0.859958815077186	-0.464340907125095	0.219042033549719	-0.421263206305618	-0.880089710513374	-0.952450643969081	-0.288111345462398	-0.0991444573273252
441	0.0001	-9.28908325195312	-1.30708190917969	-0.761017456054688	-0.212169442891572	0.857920240010277	-0.467928401877668	0.220537820739125	-0.42444179474195	-0.878186900665155	-0.952022687296221	-0.289520335480845	-0.0991502809695548
442	0.0001	-9.52619018554688	-1.44419677734375	-0.638871459960938	-0.212399093458673	0.855922038727741	-0.4714701355527	0.222088072107838	-0.427570353579277	-0.876276486599701	-0.951611009459935	-0.290828224834248	-0.0992745199656112
443	0.0001	-9.54355407714844	-1.39869140625	-0.77359130859375	-0.212618230552573	0.85406254044409	-0.474732203507283	0.223686828441952	-0.430396963955401	-0.874484222956341	-0.95118751611776	-0.292122629092922	-0.0995323000516172
444	0.0001	-9.45134582519531	-1.39689514160156	-0.647254028320313	-0.212924632768234	0.852677831115829	-0.477078208561363	0.225033170936696	-0.432351944618903	-0.873173446665912	-0.950801331897831	-0.293278557531675	-0.0998224170888075
445	0.0001	-9.48487609863281	-1.36336486816406	-0.652044067382813	-0.213409609464675	0.85156853729219	-0.478839602458041	0.226081436721917	-0.433779633548299	-0.872194022846097	-0.950443855552704	-0.294391331076075	-0.0999510961889271
446	0.0001	-9.37530395507813	-1.561552734375	-0.63228515625	-0.21423786469556	0.850732303312477	-0.479954878536863	0.226721073986611	-0.434634392666105	-0.871602259819307	-0.950105095208443	-0.295546092534505	-0.0997637972740699
447	0.0001	-9.46631469726563	-1.48131958007813	-0.668809204101563	-0.215427213818734	0.849934755522705	-0.480834718901263	0.227174355365127	-0.435266947107333	-0.871168466497899	-0.949727817751348	-0.296906712807948	-0.0993150345055681
448	0.0001	-9.52619018554688	-1.47353576660156	-0.540076904296875	-0.216892613475064	0.849277089942025	-0.481337738723615	0.227207996697293	-0.435615654928005	-0.870985377270163	-0.949386180885713	-0.298274078124888	-0.0984807283786473
449	0.0001	-9.39206909179688	-1.50826354980469	-0.28740234375	-0.218389266465286	0.848815920115305	-0.481474466666262	0.227276299741297	-0.435575670508935	-0.870987553778236	-0.949026665520342	-0.299642068173845	-0.0977906903127398
450	0.0001	-9.53996154785156	-1.35737731933594	-0.491577758789063	-0.219426077073449	0.848765904365479	-0.481091089386207	0.227280548877779	-0.43507140308973	-0.871238444006777	-0.948786461118608	-0.300515080819888	-0.0974419693861096
451	0.0001	-9.43278442382813	-1.54478759765625	-0.441881103515625	-0.220832678297555	0.848602615131411	-0.480735405174259	0.227133725578607	-0.434604974258434	-0.871509487644631	-0.948495228717947	-0.301648997913065	-0.0967712930436161
452	0.0001	-9.40943298339844	-1.48431335449219	-0.449066162109375	-0.222366233249581	0.848685519438588	-0.479881388892763	0.227057362123066	-0.433591673016848	-0.872033953121188	-0.948155162732402	-0.302871507715245	-0.0962841482186293
453	0.0001	-9.22681274414063	-1.55197265625	-0.338296508789063	-0.224106146976393	0.848803701161547	-0.47886189217963	0.227106589502811	-0.432346819060587	-0.872639000419185	-0.947733629186913	-0.304316455261053	-0.0958773339509938
454	0.0001	-9.37111267089844	-1.53999755859375	-0.373024291992188	-0.225615930041269	0.849229127494197	-0.477396419265015	0.226992954361048	-0.430719559167462	-0.873472873088243	-0.947402581156531	-0.305435018237975	-0.0955918346508309
455	0.0001	-9.29327453613281	-1.71842651367188	-0.181422729492188	-0.226990991527832	0.849435141461868	-0.476376983296704	0.226912722247968	-0.429554210095976	-0.874067387030793	-0.947093293317627	-0.306501420940391	-0.0952427042575608
456	0.0001	-9.46691345214844	-1.66513732910156	-0.05508544921875	-0.227992005359809	0.84970266583677	-0.475420892643455	0.226896316038105	-0.428472026772895	-0.874602643513878	-0.946856751182749	-0.307273659696066	-0.0951062079815855
457	0.0001	-9.36811889648438	-1.56754028320313	0.05748046875	-0.228795989246887	0.850211344374651	-0.474123470417979	0.227598924767933	-0.426824658323733	-0.875225365543818	-0.94649412293422	-0.308158045397939	-0.0958514178690266
458	0.0001	-9.34895874023437	-1.62621826171875	-0.092208251953125	-0.229457326859758	0.850601182874322	-0.47310354346927	0.22842150998971	-0.425437199711317	-0.875686475215767	-0.946135798352644	-0.308999703550986	-0.0966759239987262
459	0.0001	-9.378896484375	-1.42563537597656	-0.0053887939453125	-0.229951456105411	0.851072128380404	-0.472015423613521	0.229464074277746	-0.423923720976994	-0.876147771445478	-0.945763483356626	-0.309782038031693	-0.0978086011661162
460	0.0001	-9.52858520507812	-1.42383911132813	-0.210162963867188	-0.230302228746193	0.85135584180329	-0.471332275642087	0.23087005586991	-0.422721589830211	-0.876359215615403	-0.945335866630036	-0.310643989349273	-0.0991988464852688
461	0.0001	-9.25555297851563	-1.6429833984375	-0.15567626953125	-0.230086077404319	0.851144964428885	-0.471818446557621	0.232437950189069	-0.422729712010025	-0.875940745653395	-0.94500423083529	-0.311210282785248	-0.100574169606954
462	0.0001	-9.19268371582031	-1.63939086914063	-0.30895751953125	-0.229669341897558	0.850460893304292	-0.473252852450367	0.234606063518881	-0.423536655815625	-0.874972397359306	-0.944569737156827	-0.311982323442503	-0.102249897344203
463	0.0001	-9.30764465332031	-1.73638916015625	-0.584384765625	-0.228510376485266	0.84924182348886	-0.475995097743537	0.238300076343159	-0.42526553385901	-0.873133609092249	-0.943925887691087	-0.312949757866863	-0.105196804122869
464	0.0001	-9.0962841796875	-1.82680114746094	-0.751437377929688	-0.22767196180805	0.847022906780843	-0.480330795593002	0.242374304816146	-0.428464509306177	-0.870444059448916	-0.943090756062938	-0.314595549322538	-0.107747232795496
465	0.0001	-9.35853881835938	-1.59089172363281	-0.808319091796875	-0.226904118493528	0.844271670081864	-0.485509905262348	0.246721801934428	-0.432421436481708	-0.867260084243086	-0.942148010378892	-0.31657076360314	-0.110182022902199
466	0.0001	-9.45374084472656	-1.369951171875	-1.36216735839844	-0.226340216784179	0.841643046659013	-0.490313255252829	0.250961650115893	-0.435993112435136	-0.864250111993184	-0.941163299559221	-0.318664381316233	-0.112537352213135
467	0.0001	-9.55972045898438	-1.4705419921875	-1.54778137207031	-0.226217818184283	0.839313623878321	-0.494346173756997	0.254777285720329	-0.438852028364264	-0.861682906805951	-0.940167024212679	-0.320876203500371	-0.114561898597501
468	0.0001	-9.63097229003906	-1.40707397460938	-1.6429833984375	-0.226470440891162	0.837592131106404	-0.497142395407187	0.25804529005772	-0.440571134135228	-0.859831206717822	-0.93921444179782	-0.323011606100202	-0.116360365429892
469	0.0001	-9.79682739257813	-1.51604736328125	-1.69447631835938	-0.226669867903027	0.837667742896937	-0.496924062100815	0.260592439419789	-0.43944324337528	-0.859640166796002	-0.938462759784355	-0.324349176601028	-0.118681338618029
470	0.0001	-9.52259765625	-1.24481140136719	-1.72740783691406	-0.227034650038878	0.839012381323975	-0.494483054984493	0.261408152383724	-0.436608702040281	-0.860836000159165	-0.938147667240639	-0.32470150182556	-0.120199372557324
471	0.0001	-9.61600341796875	-1.31785949707031	-1.61544067382813	-0.228094775324365	0.841208484284778	-0.490245917307868	0.260875542358115	-0.432305783214556	-0.86316606814599	-0.938038765120657	-0.324776839947917	-0.120844029080291
472	0.0001	-9.30884216308594	-1.39809265136719	-1.63040954589844	-0.229694372539807	0.844251431240122	-0.484231366262605	0.259662368109632	-0.426341682007185	-0.866491906927573	-0.937985047754623	-0.324764978149261	-0.12129204077955
473	0.0001	-9.32500854492188	-1.55376892089844	-1.36575988769531	-0.23171870296617	0.847507584251407	-0.477532551070626	0.258325002252643	-0.419659226790739	-0.87014615242531	-0.937856404737339	-0.324987735162027	-0.121689506891141
474	0.0001	-9.43757446289063	-1.69627258300781	-1.32145202636719	-0.233488930701984	0.85045504400275	-0.471390642005042	0.256719253182198	-0.413672624126486	-0.873481645539207	-0.937858275159535	-0.32496334897737	-0.121740205093442
475	0.0001	-9.23160278320313	-1.78907958984375	-1.24600891113281	-0.235248988666062	0.853553967702701	-0.464869376868999	0.255344299083667	-0.407215206520034	-0.876912233068006	-0.937793795168781	-0.324994461180222	-0.122153174109849
476	0.0001	-9.20585632324219	-1.77770324707031	-1.15200439453125	-0.237211819325851	0.85643949878997	-0.458521469164209	0.254289958207633	-0.400794799059355	-0.880170521093346	-0.937585820032961	-0.325384255856605	-0.122710700893459
477	0.0001	-9.34297119140625	-1.97708862304688	-1.13284423828125	-0.239090313841399	0.858846599614141	-0.453010309108357	0.253287507945415	-0.395224974485261	-0.882973758308777	-0.937379997730922	-0.325852325255403	-0.123040651736019
478	0.0001	-9.24896667480469	-1.82739990234375	-0.867595825195313	-0.240714125472951	0.860700106769193	-0.448611230360199	0.252245407802451	-0.390844771917456	-0.885218966418686	-0.937245412920419	-0.326244832100512	-0.123025791959823
479	0.0001	-9.32021850585938	-1.86452270507813	-0.73048095703125	-0.24163530589742	0.862035104229337	-0.445542206777513	0.252069392440544	-0.387624777148193	-0.886683739297992	-0.93705570823645	-0.326561649948565	-0.123628833385887
480	0.0001	-9.44056823730469	-1.8154248046875	-0.9244775390625	-0.242528248447927	0.863417367205851	-0.442369188249021	0.252342563331578	-0.384143994175431	-0.888119711790137	-0.936751450191581	-0.327022693014207	-0.124711181606569
481	0.0001	-9.38668029785156	-1.82680114746094	-0.998124389648438	-0.243394539242418	0.864219442632188	-0.440322442357282	0.252532082265464	-0.381853398305565	-0.889053164680921	-0.936475651415262	-0.327586228616226	-0.12530210344347
482	0.0001	-9.34476745605469	-1.90404052734375	-0.956810302734375	-0.24410601766182	0.864693056267499	-0.438996777418764	0.253089000285828	-0.380196299502445	-0.889604817758406	-0.93614005900592	-0.328263144881389	-0.126036096563536
483	0.0001	-9.32800231933594	-1.92619445800781	-0.8861572265625	-0.244838185555976	0.864915917357396	-0.438149196958606	0.253232549201446	-0.379172332468063	-0.89000090916564	-0.93591000577972	-0.328859845819679	-0.126188996702813
484	0.0001	-9.42140808105469	-1.84057250976563	-0.9580078125	-0.245221247227054	0.865041646393971	-0.437686520140176	0.253698272964428	-0.378479195435935	-0.890163291153389	-0.935683560934612	-0.329327266751747	-0.126648431378163
485	0.0001	-9.37530395507813	-1.74656799316406	-0.881965942382813	-0.245699662544325	0.864897268882144	-0.437703541344838	0.254248166667329	-0.37823621433065	-0.890109676340574	-0.935408758549923	-0.32998497003504	-0.12696603474578
486	0.0001	-9.50703002929688	-1.77291320800781	-1.17236206054687	-0.2462431537434	0.864715374342979	-0.437757502059515	0.254993614104479	-0.377952334299455	-0.890017016558408	-0.935062867405417	-0.330785964594139	-0.127428723712846
487	0.0001	-9.48607360839844	-1.59807678222656	-1.05500610351563	-0.246429472484778	0.864556593723867	-0.437966221687768	0.255583364691724	-0.377932192394037	-0.889856393832788	-0.93485274711247	-0.331223722279702	-0.127832652383683
488	0.0001	-9.34117492675781	-1.47652954101563	-1.18433715820313	-0.246548369268897	0.864560918356031	-0.437890762704838	0.25592862822516	-0.377715390061656	-0.88984921271267	-0.934726932780711	-0.331459654501039	-0.128140776384477
489	0.0001	-9.52259765625	-1.51963989257813	-1.05380859375	-0.246560879667034	0.864458447015429	-0.438085980147153	0.25587908564159	-0.377932124901272	-0.889771432727997	-0.934737196301208	-0.331479867188465	-0.128013559827368
490	0.0001	-9.39566162109375	-1.55736145019531	-0.86939208984375	-0.246558336356285	0.864477565749492	-0.438049683356869	0.256130197262642	-0.377806058992153	-0.88975272061344	-0.934669090546714	-0.331573702371961	-0.128267576074116
491	0.0001	-9.50523376464844	-1.6046630859375	-1.04183349609375	-0.246688312344077	0.864917819276472	-0.437106442929938	0.256298798080938	-0.376757061599323	-0.890148887904327	-0.934588574002003	-0.331619182848452	-0.128735833829695
492	0.0001	-9.35195251464844	-1.54658386230469	-1.00351318359375	-0.246833065384147	0.865060530213832	-0.436742162951128	0.256511594582574	-0.376286083805297	-0.890286799283904	-0.934491968760444	-0.331781648378323	-0.12901820848854
493	0.0001	-9.29267578125	-1.49329467773438	-0.892144775390625	-0.246691193581096	0.864951867962487	-0.437037436746258	0.257288563884293	-0.376334181939886	-0.890042234052966	-0.934315819144625	-0.332010315520228	-0.129703895408988
494	0.0001	-9.46451843261719	-1.36815490722656	-1.01788330078125	-0.247022726299076	0.864461135800309	-0.437820416817914	0.258015542985692	-0.37683384775094	-0.889620273356571	-0.934027704230217	-0.332720897870966	-0.129957884910336
495	0.0001	-9.28429321289063	-1.33222961425781	-1.00471069335938	-0.247026881623049	0.863942854534087	-0.438839906862497	0.259154293137243	-0.377476278470034	-0.889016710495899	-0.933711289480923	-0.333338271567947	-0.130647711820627
496	0.0001	-9.608818359375	-1.33701965332031	-0.976569213867188	-0.247122733329813	0.863578243392622	-0.43950309692938	0.260158041908564	-0.377786139985879	-0.888591821740934	-0.933406743012876	-0.333931504913036	-0.131307281308431
497	0.0001	-9.58067687988281	-1.2981005859375	-1.06997497558594	-0.247106189070472	0.863210871051905	-0.440233487391498	0.260956947815647	-0.378254036016737	-0.888158406830556	-0.933188085387833	-0.334351426398724	-0.13179196089037
498	0.0001	-9.56211547851563	-1.26995910644531	-1.25798400878906	-0.246967288979686	0.863216761660034	-0.440299875724703	0.261557667729395	-0.378127279758954	-0.88803566750106	-0.933056667424859	-0.334479569916098	-0.132395893753387
499	0.0001	-9.43577819824219	-1.47772705078125	-1.17176330566406	-0.247191703304654	0.863453977060678	-0.439708416243585	0.262625021991633	-0.377102944656038	-0.888156217652976	-0.93269735693913	-0.335023280728136	-0.133547900503597
500	0.0001	-9.44775329589844	-1.44898681640625	-1.15140563964844	-0.248085631390208	0.863619958705009	-0.438878213658505	0.263357056559721	-0.375853511920302	-0.88846901934585	-0.932253495707	-0.335998072172346	-0.134196554495803
501	0.0001	-9.38488403320313	-1.28193420410156	-1.42204284667969	-0.248445933811639	0.86413943650426	-0.437650148235509	0.264549169126255	-0.374106414009657	-0.888852140747517	-0.931819915588346	-0.336611683212178	-0.135662152562879
502	0.0001	-9.417216796875	-1.35617980957031	-1.23523132324219	-0.248819406279786	0.864937356186925	-0.435858088064162	0.265466638644852	-0.371875341041748	-0.889514583630694	-0.931459267399911	-0.337034272140765	-0.137082211017207
503	0.0001	-9.5752880859375	-1.57292907714844	-1.18852844238281	-0.249694270033821	0.865338524526752	-0.434559558037954	0.266255973041371	-0.370120903965389	-0.890010265821488	-0.930999746687436	-0.337934541616727	-0.137984481918158
504	0.0001	-9.26573181152344	-1.46754821777344	-1.19930603027344	-0.250873679041638	0.865482928269096	-0.43359162588646	0.266884395654795	-0.368716496283912	-0.890404888084118	-0.93050261499906	-0.339097989146008	-0.138482624314552
505	0.0001	-9.29926208496094	-1.5663427734375	-1.16996704101563	-0.251515331288812	0.865654925648407	-0.432875949698445	0.26753784740556	-0.367643251974012	-0.890652535775637	-0.930141676483899	-0.339823467374789	-0.139127541087655
506	0.0001	-9.41901306152344	-1.465751953125	-1.15799194335938	-0.251679339941544	0.866128278358888	-0.431832508356721	0.26801194123663	-0.366371161106737	-0.891034102413524	-0.929960810572769	-0.339991143614611	-0.139924669241945
507	0.0001	-9.3070458984375	-1.5328125	-1.22265747070313	-0.251910003565423	0.866550904361649	-0.430849022574818	0.268617956511268	-0.365101951216324	-0.891372513968062	-0.929723476923854	-0.340279437180739	-0.14079829930997
508	0.0001	-9.44475952148438	-1.49568969726563	-1.16996704101563	-0.252137002956068	0.8671254705752	-0.429558319696022	0.269354640780809	-0.363469101354096	-0.891817408358172	-0.929448766328824	-0.340563695423607	-0.141920259756116
509	0.0001	-9.55852294921875	-1.52981872558594	-1.30109436035156	-0.253181084622189	0.867409961973605	-0.428368178391535	0.269807580436276	-0.361914405515293	-0.892312631659798	-0.929033480520834	-0.341493661653423	-0.142403901357664
510	0.0001	-9.33099609375	-1.54838012695312	-1.18014587402344	-0.254513796172229	0.867576047773473	-0.427240598360879	0.270294210487738	-0.360364492464015	-0.892792513604344	-0.928527741822942	-0.34270867205385	-0.142783047888307
511	0.0001	-9.33518737792969	-1.70824768066406	-1.12506042480469	-0.255726589367905	0.867659725006338	-0.426345532511112	0.270757302564558	-0.359079805184617	-0.893169735613865	-0.928059477942132	-0.343843416558326	-0.143098952795868
512	0.0001	-9.31423095703125	-1.74656799316406	-1.3555810546875	-0.256384734244548	0.867834821331797	-0.425593222373619	0.271284264689827	-0.358005184318616	-0.893441176425563	-0.92772394373437	-0.344521422969606	-0.143642867337525
513	0.0001	-9.21783142089844	-1.67232238769531	-1.05081481933594	-0.256878861356317	0.867733369991819	-0.425502114202648	0.271458481697959	-0.357767847516244	-0.893483329445957	-0.927536276003543	-0.345023138189651	-0.14365058583676
514	0.0001	-9.378896484375	-1.63998962402344	-1.06398742675781	-0.257354247106744	0.868082620869951	-0.424501301340382	0.272041655733371	-0.35644419733495	-0.893834924206975	-0.927233589254599	-0.345514250834608	-0.144422205454122
