// General information: 
//  MT Manager version: 2020.0.2 
//  XDA version: 2020.0.2 build 5355 rev 106296 built on 2020-10-15
// Device information: 
//  DeviceId: 00B474BA
//  ProductCode: MTW2-3A7G6
//  Firmware Version: 4.4.0
//  Hardware Version: 2.0.0
// Device settings: 
//  Filter Profile: human(46.1)
//  Option Flags: Orientation Smoother Disabled, Position/Velocity Smoother Disabled, Continuous Zero Rotation Update Disabled, AHS Disabled, ICC Disabled
// Coordinate system: ENU
PacketCounter	SampleTimeFine	Year	Month	Day	Second	UTC_Nano	UTC_Year	UTC_Month	UTC_Day	UTC_Hour	UTC_Minute	UTC_Second	UTC_Valid	Acc_X	Acc_Y	Acc_Z	Mat[1][1]	Mat[2][1]	Mat[3][1]	Mat[1][2]	Mat[2][2]	Mat[3][2]	Mat[1][3]	Mat[2][3]	Mat[3][3]
1,9.141516,-0.40954833984375,-2.27766357421875,8.7609814453125,0.673256561391585,0.704949357362637,0.223096405388308,-0.737659984755472,0.661101953567611,0.137120216888849,-0.0508266606589023,-0.256886376717595,0.965104160193692
2,9.141516,-0.634081420898438,-2.3375390625,8.77834533691406,0.672928994446819,0.704132076928194,0.226637566774754,-0.737744812602407,0.661168537983025,0.136340587719242,-0.0538438474761341,-0.258948223825105,0.964389266565525
3,9.141516,-0.480800170898438,-2.12318481445313,8.78792541503906,0.672702889313668,0.703983981045289,0.227766057920553,-0.737859549589003,0.661177962483584,0.13567235166522,-0.0550827358557712,-0.259326543874096,0.964217628885181
4,9.141516,-0.405357055664062,-2.28245361328125,8.75679016113281,0.673189114192254,0.703414327530363,0.228089237707647,-0.737397217674534,0.661650299117114,0.135883130093802,-0.0553331717770069,-0.259667413248642,0.964111546760983
5,9.141516,-0.40475830078125,-2.27347229003906,8.79032043457031,0.673746372090587,0.703080171396674,0.227473292242399,-0.736914944146984,0.662154870371293,0.136041511078147,-0.0549744594118112,-0.259285942990361,0.964234726910403
6,9.141516,-0.420325927734375,-2.27287353515625,8.77295654296875,0.67418104214021,0.702554564091402,0.227809145762591,-0.736491295788362,0.662611258792962,0.136113522284841,-0.0553217285225282,-0.2595446092585,0.96414527025658
7,9.141516,-0.817899169921875,-2.45190124511719,8.67955078125,0.676890963205432,0.699897750962893,0.227951227520071,-0.733950475849867,0.665307887408079,0.136682529799365,-0.0559939544109629,-0.259824081158165,0.964031184101292
8,9.141516,1.43581420898438,-0.677191772460938,9.29147827148438,0.680763388214103,0.697572386432722,0.223503858923759,-0.730597194623556,0.668610796692541,0.138518380565015,-0.0528104958833383,-0.257589534400608,0.964810179927551
9,9.141516,-0.949026489257813,-2.79019775390625,8.7897216796875,0.687090528793829,0.69094020652891,0.224740375196809,-0.724591695058637,0.674435072757261,0.141789308789344,-0.0536048569988536,-0.260267100565352,0.964047486210839
10,9.141516,-0.883163452148438,-2.29143493652344,9.13340698242188,0.688976086468769,0.687004260711811,0.23094825835671,-0.722304285305163,0.677164531266142,0.140444711630251,-0.0599038538324292,-0.263577964479061,0.962776290182251
11,9.141516,-2.32436645507813,-3.27878173828125,9.70821166992187,0.689021958255012,0.683819137068799,0.240083587154375,-0.721568374017255,0.678231930672419,0.139070233459426,-0.0677334678022903,-0.269059168204408,0.960738955879603
12,9.141516,-1.93757080078125,-3.31470703125,9.17412231445313,0.686896159203056,0.681607396920699,0.252160708547306,-0.722432305140286,0.678181182425141,0.134765901822865,-0.07915321194862,-0.2747392222953,0.958255252409707
13,9.141516,-2.63512023925781,-3.4631982421875,10.2518811035156,0.680743258268141,0.677127752507544,0.279439838080682,-0.724940738635757,0.677493623121476,0.124351582603435,-0.10511680069674,-0.287228824134729,0.95207670951319
14,9.141516,-3.79909973144531,-3.91286315917969,9.66031127929688,0.672221252188529,0.666724756350953,0.321864392834698,-0.726454849225794,0.677843040041247,0.113102454013912,-0.142765332424981,-0.30984982223071,0.940005929513842
15,9.141516,-5.35885620117188,-5.07444763183594,8.95318176269531,0.656859667609634,0.652980368787425,0.377030522698097,-0.731136479745125,0.673822144530757,0.106785605424505,-0.184322611346702,-0.345803926406585,0.920024358062395
16,9.141516,-4.79363159179688,-4.49126037597656,7.26169921875,0.636365772159108,0.643526034606338,0.425338508494335,-0.741712795591944,0.661928561477016,0.108225266717861,-0.211897930333276,-0.384349869630278,0.898540174302553
17,9.141516,-5.16605712890625,-4.78944030761719,5.55584655761719,0.615196125478986,0.626252797363036,0.478895772575428,-0.747977479653229,0.655599278119643,0.103533938689719,-0.249125304068549,-0.421896930925049,0.871745124763413
18,9.141516,-3.23627014160156,-4.40982971191406,-1.025068359375,0.579695343624368,0.616431077145012,0.532884636398974,-0.766506017470567,0.634409452565144,0.0999658525567878,-0.276444992288948,-0.466409019666038,0.840262335590813
19,9.141516,-4.37629943847656,-4.68346069335938,-4.74812622070313,0.545851659301745,0.601636415547677,0.583163432945238,-0.783115439829053,0.613825764243867,0.0997403581895583,-0.297953308320081,-0.511127728300251,0.80620857811347
20,9.141516,-1.41485778808594,-3.44224182128906,-4.30205383300781,0.517598396058933,0.583945035997286,0.62537996076893,-0.79701654827863,0.594907339279877,0.104162754576458,-0.311217805029272,-0.552352652392533,0.773336941589949
21,9.141516,-4.14577880859375,-2.78241394042969,-12.1517303466797,0.497950695392082,0.579898227777541,0.644796983847637,-0.818717077143632,0.55950173457483,0.12907422903564,-0.285915114241851,-0.592178904072261,0.753376859891413
22,9.141516,-2.577041015625,3.573369140625,-16.123271484375,0.492256939369468,0.592652040450427,0.637531696931649,-0.834851838728698,0.528763819618445,0.153072631237019,-0.246384887957673,-0.607595574385181,0.755064305191039
23,9.141516,-4.28109741210938,0.25626708984375,-12.5451123046875,0.494302714587272,0.606384799726101,0.622866198322554,-0.84602923022491,0.50022608244467,0.184413687255326,-0.199748261461023,-0.618119196517302,0.760282375792116
24,9.141516,-3.87095031738281,-2.23814575195312,-9.49924621582031,0.479562716460953,0.643738810715516,0.596338783376669,-0.860123625922332,0.479437163183574,0.174147508419467,-0.173801464639436,-0.596439728838599,0.783615148368206
25,9.141516,-3.66737365722656,-3.92543701171875,-9.05856262207031,0.468405387679077,0.677432757152721,0.567169509344143,-0.871548357884996,0.45957698884075,0.170857985461716,-0.144913259093777,-0.574346455429588,0.805683744700294
26,9.141516,-2.48842529296875,-3.36799621582031,-10.1159637451172,0.452389165377501,0.708960406028644,0.541035290653713,-0.88338835905045,0.439457926341674,0.162793544311895,-0.122348069634143,-0.55159031323907,0.825093374229622
27,9.141516,3.53564758300781,-3.50091979980469,-4.97325805664063,0.430396610792009,0.743367420830712,0.512019174510337,-0.897075425606989,0.415155657138999,0.151332287095403,-0.100072164915084,-0.524452722362065,0.845538233207835
28,9.141516,2.69918701171875,-6.69348083496094,-2.36448303222656,0.418669397275653,0.757364748216979,0.501113334429523,-0.90064736242644,0.417009727084071,0.122217904054875,-0.116405602696517,-0.502495299157616,0.856707773972758
29,9.141516,10.7135211181641,-5.18162475585938,1.92320068359375,0.4128448533662,0.773418627669332,0.481022612174447,-0.90052152297708,0.425739915064568,0.0883544643798779,-0.136455537462141,-0.469647901192906,0.8722446532946
30,9.141516,6.35039428710938,-7.36947509765625,6.67791320800781,0.395436794252166,0.795638866958875,0.458899264693208,-0.908356421800529,0.412787169764754,0.0670474716252807,-0.13608215432344,-0.44335713128583,0.885954909356391
31,9.141516,7.57664428710938,-2.20521423339844,-0.0832269287109375,0.38576363803423,0.813671460503687,0.434885237657468,-0.910386122689878,0.412154301931538,0.0364134454977389,-0.149611240166928,-0.409960468534617,0.899749349015931
32,9.141516,2.82253051757813,-3.90328308105469,10.9775720214844,0.369145228752732,0.839427459047828,0.398865066263768,-0.919615556959071,0.391942509021752,0.0262354153881902,-0.134309446756176,-0.376487198478568,0.916634257429761
33,9.141516,4.2104443359375,-2.99616943359375,8.382568359375,0.348044307020765,0.848627202466385,0.398367960037592,-0.923207811239077,0.384123025749902,-0.0116977927787179,-0.162949371332291,-0.36370506227274,0.917151094454776
34,9.141516,3.16801208496094,-0.810115356445313,8.2628173828125,0.318129115725432,0.863632709593226,0.391065734434018,-0.930003989150317,0.364381635275654,-0.0481518850964092,-0.184082714811176,-0.348374176417402,0.919102272499228
35,9.141516,2.84109191894531,0.63228515625,9.39685913085938,0.296255454584551,0.872582581285753,0.388371400164319,-0.930950502172192,0.354688138161501,-0.0867610923909545,-0.213456946793128,-0.335851103145756,0.917409487841463
36,9.141516,-2.366279296875,-0.0880169677734375,11.8427728271484,0.269203557963731,0.879313954677604,0.392856734050597,-0.933411244161855,0.338690098883672,-0.118458710909694,-0.237219083658728,-0.334807386458844,0.911938112111075
37,9.141516,-0.889749755859375,-0.822090454101563,15.2065777587891,0.239765387502977,0.87950654368905,0.411072741207305,-0.93657535420075,0.321032336807162,-0.140587498120827,-0.255615267265646,-0.351292582233491,0.900696595313005
38,9.141516,-2.77223510742188,-0.567020874023437,10.3219354248047,0.207717564045923,0.875333598196262,0.436628566925727,-0.939091745396942,0.303381416835535,-0.161450951208682,-0.273788435318501,-0.376498084706482,0.885036205416591
39,9.141516,-4.45593383789063,-3.18956726074219,11.3775402832031,0.186060254999118,0.859445887347673,0.476166303124061,-0.938990592327725,0.29821817119251,-0.171355157175452,-0.289271929211412,-0.415233294777486,0.862498151811667
40,9.141516,-3.21052368164063,-2.56566467285156,9.91418334960938,0.148486167713344,0.843863883591818,0.51560217606905,-0.942262290299956,0.278979532705641,-0.185235516599882,-0.300156016558868,-0.458327575322146,0.836565717336561
41,9.141516,-1.31007568359375,-5.14330444335938,8.67236572265625,0.115481702490057,0.824293723689377,0.554259716627773,-0.946448388745218,0.260676311829555,-0.190481778374002,-0.301495313117103,-0.502581055688773,0.810254810927512
42,9.141516,1.11428283691406,-8.05445068359375,9.62857727050781,0.121785772711558,0.798266606590525,0.589863247174713,-0.943307891511327,0.277960324583832,-0.18140639396037,-0.308769246165325,-0.534329938109123,0.786862802439408
43,9.141516,-3.14166687011719,-2.92551635742188,1.11548034667969,0.134730640127063,0.768524550121805,0.625473956668885,-0.933443853101266,0.310229331471031,-0.180112006824921,-0.332460866446586,-0.559578214153406,0.759171913683897
44,9.141516,0.053887939453125,-2.14354248046875,0.476010131835938,0.130938223265584,0.739265458598502,0.660561702955295,-0.924212422500231,0.332118845798458,-0.188489974167738,-0.358729117558509,-0.585818789378292,0.726725371943932
45,9.141516,-3.68952758789063,0.928668823242188,-10.3309167480469,0.131342436236663,0.707511166364259,0.694389742085311,-0.926740125380683,0.336343809558454,-0.167408428046808,-0.35199702335789,-0.621531005856983,0.699855202385174
46,9.141516,-8.19695434570312,-0.98435302734375,-7.16050964355469,0.126005376283409,0.673913701672596,0.727985554695707,-0.924875456468242,0.34521011694648,-0.159484686350942,-0.358786893810709,-0.653200044286387,0.666784573137326
47,9.141516,-7.39761657714844,3.50211730957031,-11.5505804443359,0.122623516591382,0.645841398012565,0.753559793109969,-0.931267007382196,0.337357469004686,-0.137592510945045,-0.343081964172081,-0.684893295864347,0.642818745168418
48,9.141516,-6.35458557128906,4.55891967773438,-13.2977471923828,0.108490239824292,0.629993730204031,0.768984894368204,-0.942498916730409,0.311164494543457,-0.121952651867519,-0.316110202025928,-0.711536757475765,0.627526718902073
49,9.141516,-7.80057861328125,2.68062561035156,-13.27798828125,0.101959623383942,0.624020024572503,0.774727851656269,-0.954404525040414,0.28100596853301,-0.100735536089342,-0.280564142009964,-0.729132809974532,0.624218797888093
50,9.141516,-5.374423828125,0.173040161132813,-9.73994567871094,0.0910727216053974,0.621452551898843,0.778140401931298,-0.964948789930942,0.248195248871881,-0.0852815997049494,-0.246129218481261,-0.743098811851991,0.622273704758576
51,9.141516,-8.70290222167969,0.504750366210937,-11.5182476806641,0.0862448629984514,0.626202636096201,0.774875526876767,-0.973400962921704,0.218668303406763,-0.0683720591199951,-0.21225548046983,-0.748367845134582,0.628405266829571
52,9.141516,-5.1205517578125,-6.102509765625,-5.33969604492188,0.0750604048996139,0.626331433218672,0.775934837069808,-0.98067650138479,0.187343353950414,-0.0563566088608838,-0.180664150422808,-0.756710911440329,0.628290586638978
53,9.141516,-4.23559204101563,-6.13125,-7.81315246582031,0.0614421016681494,0.624685126211925,0.778455754190431,-0.986349135964284,0.157380857469432,-0.0484422097420834,-0.152775162003221,-0.764852769356154,0.62582744513413
54,9.141516,-3.67515747070313,-3.43326049804688,-8.7801416015625,0.055109523208851,0.626101160460652,0.777791924181216,-0.991119916292788,0.128711916729769,-0.0333849370154704,-0.121013437185591,-0.769045238826413,0.627634582108854
55,9.141516,-0.232915649414063,-5.48998352050781,-6.63240783691406,0.048659593006002,0.631273619588156,0.774032209420615,-0.994827228427437,0.0998142852126309,-0.0188651543030029,-0.0891685459558176,-0.769110346881096,0.632865107848873
56,9.141516,0.795745239257812,-4.75950256347656,-9.92675720214844,0.0414617630090742,0.647465743648985,0.760965855350453,-0.997688439526398,0.0678697689203435,-0.00338704916999399,-0.0538395750685325,-0.759066403727478,0.648783087702411
57,9.141516,3.89669677734375,-5.16426086425781,-6.86771850585938,0.0280461422334262,0.66918549353313,0.742565949361162,-0.999055099923707,0.043438603610075,-0.00141245631396147,-0.0332012232041907,-0.741824684788279,0.669771465364506
58,9.141516,3.31470703125,-4.91817260742188,-2.95365783691406,-0.00447416327573713,0.68267768569128,0.73070593217941,-0.999853871003396,0.00900216553843447,-0.0145326410243621,-0.0164990455028888,-0.730664176263499,0.682537649527611
59,9.141516,5.25167907714844,-6.03964050292969,0.231119384765625,-0.0376424102138505,0.706722922169377,0.706488329863749,-0.999264813446289,-0.0214760640794377,-0.0317586410258499,-0.00727197094638793,-0.707164400936609,0.707011759793656
60,9.141516,9.43038940429688,-11.4745385742187,8.49992431640625,-0.0578433983792198,0.714263277378246,0.697482696454063,-0.998295659955885,-0.0468005082143179,-0.0348638458023019,0.00774057989998106,-0.698310592086193,0.71575303031356
61,9.141516,9.55014038085938,-0.243693237304688,0.986748046875,-0.0740684422114249,0.724267533915967,0.68552928834854,-0.997025669823085,-0.0684630124089459,-0.0353925083276342,0.021299755449346,-0.686111765856829,0.727184271811913
62,9.141516,4.28828247070313,-3.37518127441406,4.49664916992188,-0.112545965210845,0.739916263376014,0.663217406968814,-0.993533333312294,-0.0938716363319129,-0.0638719929995305,0.0149973768413794,-0.666117136158534,0.745696345440845
63,9.141516,10.1045874023437,-2.9075537109375,9.42559936523438,-0.14828981710442,0.744381239200226,0.651081178402412,-0.988880408167434,-0.119073897927786,-0.0890895345980285,0.0112101956159395,-0.65705249224017,0.753761470198122
64,9.141516,7.29283447265625,0.357456665039063,6.41326354980469,-0.168486466283071,0.750314730948407,0.639249650137772,-0.985525720891159,-0.140560815855822,-0.0947718866959426,0.018744709691175,-0.645964752573828,0.763137061274597
65,9.141516,4.65651672363281,-3.29375061035156,11.2033026123047,-0.181919928896685,0.749336549160915,0.636710197469647,-0.983280549077227,-0.143916557778542,-0.111567854705388,0.00803126868010534,-0.646361168766184,0.762989343460707
66,9.141516,4.67148559570313,-3.51888244628906,11.6451837158203,-0.194475442931706,0.745314191829286,0.637719419144795,-0.980907339991984,-0.14796807034242,-0.126199209621104,0.000304049942496443,-0.65008630628325,0.759860317385132
67,9.141516,3.15723449707031,-4.04219421386719,12.2822589111328,-0.207560032161753,0.730377745972751,0.650743560272997,-0.978179473489276,-0.148741968648644,-0.14505428089777,-0.0091515404853782,-0.666651464372718,0.745313406800425
68,9.141516,3.39494018554688,-4.19727172851563,11.6547637939453,-0.221410729531844,0.708669600013442,0.66989901243767,-0.975127694026621,-0.153733221321012,-0.159662384438507,-0.0101621449754216,-0.688588044246379,0.725081537573841
69,9.141516,3.3769775390625,-4.09907592773438,9.30465087890625,-0.225013864609641,0.686661292550158,0.691277824066982,-0.974312293391958,-0.151881748376024,-0.166275342295677,-0.0091823569271024,-0.710934739496945,0.703198037893789
70,9.141516,3.62426330566406,-1.40168518066406,5.95042602539062,-0.236836013371948,0.665305246309093,0.70800962705579,-0.971549425615462,-0.161698357834202,-0.173047261347843,-0.00064525680841393,-0.728850169998827,0.684672924348796
71,9.141516,3.63144836425781,-2.41298217773438,2.02199523925781,-0.241166591344286,0.66174498047751,0.709881860616398,-0.970483719661812,-0.164325179455863,-0.176517946022983,-0.000158400606657838,-0.731499019964907,0.681842473522755
72,9.141516,5.70613403320313,-3.05963745117188,4.39845336914063,-0.238105215128802,0.667420435309737,0.705589022774184,-0.971235098503201,-0.161467792207694,-0.175015815042672,-0.00287922974853633,-0.72696500232854,0.686668475631087
73,9.141516,5.20317993164063,-1.77890075683594,2.89198608398438,-0.225424057282173,0.684483978906535,0.693300567588634,-0.974249231927036,-0.154914591582379,-0.163828884524206,-0.00473587246712287,-0.712378517317264,0.701779466482764
74,9.141516,3.66198486328125,-2.66326171875,5.86719909667969,-0.202442441955391,0.712223082511026,0.672127471863508,-0.979249078767291,-0.140640244142494,-0.145916289224171,-0.00939677756204804,-0.687719857548139,0.725915351887131
75,9.141516,2.90156616210938,-1.83518371582031,8.37478454589844,-0.17498641322133,0.743898409822323,0.644976674812162,-0.984531736570432,-0.126367796912132,-0.121360782747901,-0.00877581184523013,-0.656236493779029,0.75450424078269
76,9.141516,2.61655883789063,-0.685574340820313,10.8356671142578,-0.132477924981937,0.773102247972053,0.620292280762092,-0.991155967203691,-0.0984585587871057,-0.0889705618622341,-0.00771025738842729,-0.626593030907721,0.779308491900916
77,9.141516,2.15791259765625,-1.20888610839844,14.4401715087891,-0.0968290981354252,0.787989000490029,0.608027516532768,-0.99529984767793,-0.0757217006924388,-0.060369174721325,-0.00152936802940357,-0.6110151873325,0.791617396146939
78,9.141516,3.98171997070312,-2.98838562011719,15.5191278076172,-0.0588853072581418,0.785958559903592,0.615468652900688,-0.998198842350351,-0.0534436180924114,-0.0272552896813081,0.0114713434057993,-0.61596503293569,0.787689968503473
79,9.141516,2.1507275390625,-2.49141906738281,13.4354608154297,-0.000538887091009632,0.775690719390444,0.631112998956795,-0.999933835281716,-0.00766987248810334,0.00857310415278439,0.0114906335552658,-0.631066621607856,0.775643529227793
80,9.141516,4.30444885253906,-1.97589111328125,12.5493035888672,0.0506954298992829,0.756537157305809,0.651982747473407,-0.998510139984943,0.0251996899030054,0.0483991319761252,0.0201859786628473,-0.653464999249721,0.756687531958196
81,9.141516,2.89617736816406,-4.23140075683594,8.13288757324219,0.0940788428213291,0.729467751243587,0.677514554256234,-0.994794762391817,0.0421198351085372,0.0927863147680674,0.0391478230711351,-0.682717159141364,0.729633283617694
82,9.141516,2.71894592285156,-3.39434143066406,4.54814208984375,0.135849569220133,0.70357380572898,0.697516160697903,-0.988596392831179,0.0500918816892377,0.142013997443956,0.0649774316504192,-0.708854500783391,0.702355486983084
83,9.141516,2.73271728515625,-5.22772888183594,0.134719848632812,0.174325044002655,0.681930962137557,0.710338610742524,-0.980567531353807,0.054294569851901,0.188519007368748,0.0899894187567253,-0.729398562215983,0.678144263375489
84,9.141516,1.75195678710938,-4.512216796875,-4.13200744628906,0.198110601371975,0.675992350223958,0.709779213602881,-0.974646335827984,0.0590229169636739,0.215825891241491,0.104003411872492,-0.73454110689041,0.67054653276793
85,9.141516,1.63220581054688,-3.94818969726563,-5.41633666992188,0.195855675012549,0.690145830969364,0.696662964826597,-0.974505098586944,0.0576823710748235,0.21682379227206,0.109454864640315,-0.721367781414441,0.683848050771353
86,9.141516,-0.338895263671875,-0.1772314453125,-5.14869323730469,0.160949352165753,0.722328192636161,0.672560248721556,-0.981317169402049,0.0443381346554311,0.187218436196939,0.105413087774597,-0.690127605547158,0.715969251426045
87,9.141516,6.76054138183594,-7.38564147949219,10.7117248535156,0.12818051690725,0.751756538124589,0.64686309407194,-0.987697047079906,0.0378519474258395,0.151729276231406,0.0895784476033445,-0.658353504937131,0.747359595015659
88,9.141516,1.77770324707031,-4.04518798828125,10.2740350341797,0.0950451575290488,0.783016835889424,0.61469590265756,-0.991574266718709,0.0198710681594979,0.128006305436319,0.0880164280775694,-0.621683018397572,0.778307993678949
89,9.141516,8.19216430664063,-2.47764770507812,15.5532568359375,0.0671646816159511,0.795086422463395,0.60276569772822,-0.994517640582184,0.00482074374903269,0.104457757014746,0.0801471653539503,-0.606476991520755,0.791051256646281
90,9.141516,4.75890380859375,2.17647399902344,7.94906982421875,0.0422117836282968,0.812861451962871,0.580925490261643,-0.995628467044882,-0.0142654425404214,0.0923062985878273,0.0833193910970133,-0.582282368840014,0.808705831563792
91,9.141516,1.86212768554688,-1.80285095214844,14.6203967285156,0.0164265177011352,0.82337367947931,0.567261803276862,-0.99679023559161,-0.0309740073973495,0.0738230119608467,0.0783542962793789,-0.566653681543191,0.820222048867325
92,9.141516,-0.743054809570313,-0.846040649414063,12.0786822509766,-0.0233088710392769,0.823074355967494,0.567455109307837,-0.997554385801814,-0.0565603070645217,0.0410631103587343,0.0658934283403204,-0.565110198291857,0.822379790539685
93,9.141516,1.32624206542969,0.970581665039063,12.4996069335937,-0.0580883699959431,0.817276566109144,0.573310348554829,-0.996304007407437,-0.0838595174495228,0.0185985525516326,0.0632776903426244,-0.570111038151322,0.819127180652018
94,9.141516,-0.138312377929688,-0.134719848632812,12.0744909667969,-0.0889798833322028,0.805624400947663,0.585706329964008,-0.994060121338115,-0.108824179057457,-0.001331622214368,0.0626662231783504,-0.582345793021801,0.810522252515236
95,9.141516,-1.79446838378906,-2.21838684082031,12.2128033447266,-0.115712843684838,0.786000417182627,0.607300487399035,-0.991117543594757,-0.131713442345832,-0.0183734559652423,0.0655480936798618,-0.604032212132887,0.794259739707854
96,9.141516,-1.83278869628906,0.833466796875,9.76030334472656,-0.151841970785211,0.762821120367468,0.628528403677499,-0.986591545455373,-0.155472538754787,-0.0496529166224962,0.0598426131117493,-0.627640205861975,0.776200124736846
97,9.141516,-1.21247863769531,-2.82492553710938,6.03006042480469,-0.182455447871628,0.746683306916743,0.639667138997964,-0.981291745111821,-0.178954816647027,-0.0710048207815956,0.0614534011862768,-0.640655299494749,0.765365446510314
98,9.141516,1.47293701171875,-2.65907043457031,4.4068359375,-0.207845277441247,0.736008774902402,0.64427589114605,-0.976443914100739,-0.195134756270328,-0.0920853381975035,0.0579450020364154,-0.648238775577322,0.759229126533627
99,9.141516,2.95725036621094,-3.36440368652344,3.96315856933594,-0.210794069016768,0.739354929285559,0.639468645836917,-0.975859476688115,-0.197394919884924,-0.0934533432340569,0.0571326721355843,-0.643730948568399,0.763116192745166
100,9.141516,1.97589111328125,-5.66362243652344,4.99720825195313,-0.201161301031494,0.747953069520438,0.632534850235362,-0.978244362572214,-0.18682547829727,-0.0901898428576027,0.0507158561300037,-0.636916357502264,0.769262930007062
101,9.141516,1.88907165527344,-5.46962585449219,6.14262634277344,-0.17842288893544,0.759035860289169,0.626122859748,-0.983037912013409,-0.164960634674003,-0.0801526827515362,0.0424468638211348,-0.629803581922993,0.775593780241125
102,9.141516,0.267044677734375,-4.64394287109375,5.28700561523438,-0.150428313902708,0.77068391370039,0.619207257337831,-0.988171288373601,-0.136101702058207,-0.0706670469944612,0.0298132053031321,-0.622513157981669,0.782041265490028
103,9.141516,0.0975970458984375,-4.72357727050781,7.88979309082031,-0.0999370377058783,0.784654248305372,0.611825382859281,-0.99489459163134,-0.0874842026317662,-0.0503116868390734,0.0140477769516309,-0.613729765374155,0.78939117999665
104,9.141516,-1.31187194824219,-0.473615112304688,6.90364379882813,-0.0404476146270323,0.801634894340815,0.596444034798048,-0.999146961732022,-0.037424390772048,-0.0174574865605162,0.00832702423754367,-0.596641358900414,0.802464796434595
105,9.141516,-4.62178894042969,-1.7244140625,10.8314758300781,0.019443836776015,0.814377394176816,0.580009824972997,-0.999803523056213,0.0136013560077159,0.0144193758234083,0.00385389359129279,-0.580176234405142,0.814481850341465
106,9.141516,-2.72433471679688,-1.92439819335938,15.8406591796875,0.0751811671370746,0.807198681061964,0.5854725283049,-0.997168026803974,0.0619936583464249,0.0425759632268771,-0.00192832252927366,-0.587015396405113,0.80957347162291
107,9.141516,-1.72860534667969,3.15543823242188,11.3266461181641,0.132727165337305,0.796274053394216,0.59019584162604,-0.991128006108329,0.102432159486059,0.0846931414622857,0.0069839164694166,-0.596200708314044,0.80280504502437
108,9.141516,-3.68054626464844,-4.39845336914063,16.8872827148437,0.186152823024461,0.771614217499614,0.608242242722817,-0.982277795244843,0.132389654589912,0.132677474827095,0.0218508454974672,-0.622161135647368,0.782584220286241
109,9.141516,-1.77470947265625,-2.23994201660156,15.5819970703125,0.239125208544679,0.737541691957752,0.631546821116661,-0.970779260249506,0.168085303857189,0.171274512104569,0.020168354119407,-0.654048609241953,0.756183611460062
110,9.141516,1.23642883300781,-4.27570861816406,10.6165228271484,0.274917128720349,0.707075010362411,0.651510170340537,-0.960444734146883,0.170708813018536,0.220010031151597,0.0443450672080123,-0.686224038400579,0.726037247071745
111,9.141516,-0.395776977539063,-5.04271362304688,5.23431518554688,0.303688553041323,0.676072372653655,0.671341500047573,-0.950392892415552,0.165198088167619,0.263558232107755,0.0672801069980521,-0.718077808179741,0.692703146089369
112,9.141516,1.34360595703125,-6.03485046386719,1.17655334472656,0.323405626801846,0.655327528926024,0.682608694923099,-0.942323708262447,0.157307640790902,0.295432454201146,0.0862254567944784,-0.738782874720653,0.668404843354738
113,9.141516,1.42383911132813,-6.77131896972656,-2.21838684082031,0.341733564605793,0.640462891833947,0.687768460316055,-0.934703274303386,0.155535692508894,0.319591047062192,0.0977136624446571,-0.752074419548676,0.6517945286915
114,9.141516,1.74117919921875,-6.93537780761719,-2.38783447265625,0.356079258476821,0.632966805593608,0.687430421714969,-0.928506337596928,0.156779535844265,0.336594946757667,0.105278405786451,-0.758137982267793,0.643539631349914
115,9.141516,1.312470703125,-5.21874755859375,-6.1647802734375,0.355675023950028,0.647065029129985,0.674390187810558,-0.928573372640474,0.162779116132155,0.333548273829038,0.106050784821442,-0.744855561453525,0.658743822445805
116,9.141516,3.592529296875,-8.7130810546875,3.57636291503906,0.353694156640985,0.660261608300897,0.662536830796549,-0.929690550585144,0.170278150118743,0.326620317409726,0.102839310143124,-0.731477928714224,0.67406536485213
117,9.141516,0.398171997070313,-3.47936462402344,-3.36919372558594,0.341078154182599,0.688182071057552,0.640367964387921,-0.934813479769168,0.17660974539546,0.308111596460129,0.0989416534188208,-0.703714739725046,0.703559602530206
118,9.141516,-0.540675659179688,-1.76991943359375,3.32069458007813,0.310947001756665,0.723151484412199,0.616736485616811,-0.945412588786939,0.168771136795492,0.278767538188964,0.0975038412664785,-0.669752367653293,0.736155395932877
119,9.141516,6.33063537597656,-3.36380493164063,8.58015747070313,0.29432514903608,0.741518572722456,0.60292861347969,-0.950264233453211,0.159839405046899,0.267299927448241,0.10183610982589,-0.651614587698821,0.751683334811691
120,9.141516,0.78317138671875,-2.51417175292969,5.63967224121094,0.262792479755843,0.769005321284612,0.582727147488192,-0.959080570725244,0.14223546600342,0.244813257541603,0.105378230394686,-0.623217368216532,0.774916473248662
121,9.141516,4.46371765136719,-6.08394836425781,19.6194012451172,0.22213387304932,0.774661350399108,0.59207798020357,-0.970807368697318,0.119364018864802,0.208051156890397,0.0904963829503591,-0.621008875297506,0.778561739025639
122,9.141516,4.68825073242188,2.46866638183594,6.68390075683594,0.203290769646871,0.785340109188579,0.584733935970929,-0.974379661364401,0.10358324037315,0.199636639505859,0.0962140244235576,-0.610337140614488,0.786276946305024
123,9.141516,1.61065063476563,-1.02207458496094,9.24417663574219,0.179804839879219,0.800767084351775,0.57135128964129,-0.97938416087833,0.0913629215297854,0.180165151986149,0.0920700004163038,-0.591966969676771,0.800686094443411
124,9.141516,-0.861608276367188,-3.09376647949219,13.1229107666016,0.151131657756728,0.809957853296557,0.566681125419699,-0.984303077435409,0.0704500839792371,0.161815442459925,0.0911409555298073,-0.582241411744778,0.807891245573662
125,9.141516,-0.680784301757813,0.461640014648438,9.45613586425781,0.122474247479755,0.81641281885953,0.564331611648775,-0.988504234108619,0.0495534318277532,0.142841998527834,0.0886534706235545,-0.575338653834356,0.813096547496342
126,9.141516,-1.61244689941406,0.565224609375,10.2836151123047,0.0898204270971103,0.82114834776456,0.563602414685766,-0.991781226895876,0.0219732834328696,0.126044328678804,0.0911168966383533,-0.570291649753625,0.816373165512123
127,9.141516,-3.14645690917969,0.999321899414063,8.01672912597656,0.0519672932050077,0.826840834170256,0.560030030789046,-0.993737289782418,-0.0127342064654762,0.111013687811863,0.098922188273612,-0.562291805857358,0.821000807388659
128,9.141516,-1.20589233398438,-0.40236328125,9.56151672363281,0.015390567025701,0.827193462431254,0.561706423461244,-0.995057505659409,-0.0424456321176001,0.0897715363854978,0.0981004122188222,-0.560311827489954,0.822451801078559
129,9.141516,-1.45916564941406,0.216150512695313,9.26213928222656,-0.0183545371024071,0.827212079656965,0.561589962728462,-0.995126878086844,-0.0695390003787265,0.0699058218996115,0.0968793449445706,-0.55757017737315,0.824457330507277
130,9.141516,-1.7866845703125,-0.053887939453125,7.05453002929688,-0.0414143969708065,0.830214970532939,0.555902824625434,-0.994601813645172,-0.0872368115586066,0.056186929110095,0.0951424196522201,-0.550575009796194,0.82934617535179
131,9.141516,-0.664617919921875,-1.99205749511719,8.32688415527344,-0.0502726501952486,0.835115587768033,0.547772412329426,-0.994476169037766,-0.0924570746222932,0.0496874085484146,0.092140164197355,-0.54224869240888,0.835150612597838
132,9.141516,-0.515527954101562,-1.79386962890625,9.034013671875,-0.0467694652027802,0.840287499866008,0.54011992621415,-0.995150454799879,-0.0860363185504197,0.0476793896970637,0.0865343251908727,-0.535270650661162,0.840236360260931
133,9.141516,0.8861572265625,-2.23575073242188,10.7817791748047,-0.0189679315425474,0.839563687092062,0.542930044194812,-0.996394437951358,-0.0607864400029092,0.0591872683215816,0.0826942657781991,-0.539849816178681,0.837689581157155
134,9.141516,0.334703979492187,-1.62741577148438,11.2464129638672,0.0214659039942307,0.835531213994161,0.549023501689276,-0.99649475083251,-0.026530600692905,0.0793368690466634,0.0808543538033933,-0.548802075131206,0.832032965574513
135,9.141516,-1.44599304199219,0.309556274414063,9.33398986816406,0.06917604146771,0.827469929872036,0.557232617893484,-0.994183815374623,0.0109654304450649,0.10713683111942,0.0825422106198664,-0.561402951980769,0.823415757059132
136,9.141516,-2.63571899414063,-0.286204833984375,7.26948303222656,0.126015328063034,0.817248106859517,0.562339460582041,-0.988983507131344,0.0591162446600606,0.135708850999038,0.07766440442927,-0.573245847304476,0.815694451883069
137,9.141516,-3.14585815429688,2.13755493164063,11.0697802734375,0.184451544036789,0.808827879452634,0.558368238103315,-0.979536643042191,0.104732718720479,0.171869201915446,0.0805331785047634,-0.578643689198779,0.81159465751713
138,9.141516,-6.78688659667969,-0.661025390625,10.3117565917969,0.225458835502828,0.796444817643448,0.561109584611246,-0.971259269734312,0.138631326193677,0.193485881533909,0.0763134617802159,-0.588605986927315,0.804810069335892
139,9.141516,0.0005987548828125,-1.13284423828125,10.9614056396484,0.270491441528655,0.770706838626835,0.576927507537629,-0.960781666388671,0.178073495306233,0.21257568017257,0.0610980326292116,-0.611801274241278,0.788648357156464
140,9.141516,-2.54530700683594,-0.9580078125,9.28608947753906,0.314074556159429,0.750319115075471,0.581703015915871,-0.947151111461224,0.205497144260233,0.246324371020525,0.0652835755073666,-0.628324875564585,0.775207008169897
141,9.141516,-1.87949157714844,-4.51820434570313,13.9216497802734,0.353434294558778,0.722273011431669,0.594479517214149,-0.933022263195315,0.22633513211575,0.279717472375321,0.0674807810538064,-0.65352437209914,0.753891397524069
142,9.141516,-1.76153686523438,-2.99796569824219,9.08969787597656,0.38948319204568,0.691962791201529,0.607857169659532,-0.918011548747524,0.238235495553164,0.31701521260771,0.0745495773299957,-0.681491998669924,0.728018554893206
143,9.141516,-2.13875244140625,-4.18948791503906,6.26297607421875,0.420811821602369,0.660449924071042,0.621870813428521,-0.903287722181667,0.24189416894644,0.354342351385728,0.0835984554615198,-0.710839720910604,0.698368233398529
144,9.141516,-0.767603759765625,-7.57903930664063,4.57688232421875,0.442398216184401,0.639145250507044,0.629108231603393,-0.891882002142302,0.240050197770228,0.383304574464112,0.0939697428510879,-0.730663569164881,0.676239924970227
145,9.141516,0.258662109375,-5.95461730957031,1.83638122558594,0.462297914778491,0.624012674006936,0.629991127453531,-0.87982370096271,0.234334283361942,0.413518680189329,0.110412378000557,-0.745449948903317,0.657353390851758
146,9.141516,-0.326321411132812,-7.06231384277344,0.283809814453125,0.480630865444601,0.609846192724428,0.630144104472536,-0.869163629650459,0.235910375216746,0.43462728832637,0.116398264913243,-0.75659362678033,0.643441938204663
147,9.141516,0.710123291015625,-8.02151916503906,0.795745239257812,0.494429491882329,0.603205185992963,0.625845812599379,-0.860486496716975,0.237872527374577,0.450532628882946,0.122892093011426,-0.761288489543633,0.636661110139174
148,9.141516,0.0113763427734375,-7.22876770019531,-0.738863525390625,0.498731162956918,0.608203564299272,0.617539999894179,-0.857633730222965,0.243176719204578,0.453132947401468,0.125425722559146,-0.755614655502764,0.642895699557834
149,9.141516,0.28021728515625,-9.27171936035156,3.95297973632813,0.499001449122087,0.615165485569359,0.610384288082739,-0.857950599478153,0.251413718329299,0.448008829255534,0.122140585511677,-0.747236620890633,0.653237406897993
150,9.141516,1.34480346679688,-6.75814636230469,1.77051818847656,0.494764995586327,0.629057008808624,0.599578917917574,-0.860595298262356,0.258791996581458,0.438637019771599,0.120761466334212,-0.73301704084839,0.669404725166085
151,9.141516,-2.43453735351562,-4.81099548339844,5.51632873535156,0.467028731585781,0.666031306761998,0.581623987027945,-0.875795589866082,0.257717791408669,0.408122070908399,0.121927226838388,-0.699988455907913,0.70366889440358
152,9.141516,0.460442504882813,-11.0422375488281,14.4293939208984,0.442960095312499,0.685009644533897,0.578401366575397,-0.890349451365318,0.260417981607173,0.373443877054,0.105186541031725,-0.680400074773064,0.725252735144508
153,9.141516,2.44112365722656,-1.48072082519531,6.49289794921875,0.425245578777323,0.71457651571192,0.555469711976586,-0.897690892929572,0.254747257484704,0.359520368762786,0.115400426696123,-0.651524549036361,0.749798975406955
154,9.141516,-3.37458251953125,-7.11440551757813,15.5574481201172,0.389727870869862,0.736572238704616,0.552787051075651,-0.913663798084278,0.233996042671935,0.33236172475796,0.115458437272707,-0.634592143966142,0.764174168680805
155,9.141516,0.216150512695313,-1.67471740722656,12.4409289550781,0.351193941712899,0.746996475871544,0.564498963984569,-0.931078712949175,0.215025640840215,0.294714105658626,0.0987686468322078,-0.629094777292539,0.771028219708063
156,9.141516,0.137713623046875,0.025147705078125,8.79750549316406,0.319399892896946,0.761737927638482,0.563683455508897,-0.941251555680033,0.186174891020916,0.281752407058515,0.109677788760245,-0.620559618046792,0.776451249662387
157,9.141516,-2.42435852050781,-3.10993286132812,11.4883099365234,0.286699830727774,0.772686895605256,0.566355161025817,-0.951125211047756,0.158771996795022,0.264862768133014,0.114734650258879,-0.614610782848491,0.780441891261828
158,9.141516,-1.05500610351563,-1.15559692382812,8.50890563964844,0.258820419430927,0.782357282754004,0.56650602168677,-0.959162984731632,0.138887532593761,0.246407430916205,0.114098024550414,-0.607146881250154,0.786355075892504
159,9.141516,-2.28844116210937,-1.14781311035156,7.79638732910156,0.229806952083096,0.795119740303578,0.561224877703981,-0.965405581625261,0.113234042934348,0.234883193284524,0.123210501748309,-0.595787420226639,0.79363500562829
160,9.141516,-3.79790222167969,-2.97700927734375,10.7710015869141,0.192371774211641,0.801568975769399,0.566109775194408,-0.973221524825515,0.0818665657842831,0.214796948355854,0.125829106739915,-0.592271088683793,0.795852997359657
161,9.141516,-1.83817749023438,-2.30820007324219,11.3757440185547,0.156246083862892,0.802190371557016,0.576261892769882,-0.9795047393989,0.0507592452229688,0.194920405600563,0.127112653865001,-0.594906805143134,0.793680204126187
162,9.141516,-0.147293701171875,-2.62254638671875,10.4758154296875,0.12629276357323,0.795988015733523,0.59199089239417,-0.982604704200882,0.0184710211060908,0.184788572865304,0.136154813177257,-0.605030495254502,0.784474325048793
163,9.141516,-0.528700561523437,-2.73571105957031,7.10781921386719,0.10216165268881,0.789510886098418,0.605173989404685,-0.983486257135199,-0.0111988727886823,0.180636007690773,0.149391361015585,-0.613634374835988,0.775329010984083
164,9.141516,0.176033935546875,-3.32668212890625,4.27510986328125,0.0837440935677328,0.785847787447958,0.612723576954296,-0.983746120084552,-0.0328153883867085,0.17654099100101,0.158841109323462,-0.617548706782047,0.770326616923441
165,9.141516,2.79977783203125,-4.665498046875,5.26485168457031,0.0782338030849404,0.785906049494369,0.613376844544217,-0.983858357637434,-0.0384613052206461,0.174766873599363,0.160941617246249,-0.617148612061048,0.770211260933832
166,9.141516,3.61468322753906,-5.42412048339844,6.28333374023437,0.0875938282827358,0.786699826765052,0.611089767394784,-0.983422561555034,-0.0294802043697353,0.178916133914341,0.158768342786938,-0.616631413502552,0.771076074852887
167,9.141516,4.17272277832031,-5.68877014160156,6.6342041015625,0.115022316216779,0.787635919201468,0.605309446114784,-0.981438656286478,-0.00402609579675754,0.191734072348208,0.153453676132962,-0.616127786531572,0.7725532473202
168,9.141516,3.18717224121094,-4.59304870605469,5.98814758300781,0.158721949972062,0.78723415842899,0.595877271256142,-0.976616722959788,0.0365436420459149,0.21185924256757,0.145007306824003,-0.615570420040323,0.774626322131535
169,9.141516,0.244890747070313,-3.5015185546875,6.41865234375,0.212835035184975,0.786021091327062,0.580406832994603,-0.967831321326503,0.0880205310656577,0.235700911263226,0.134178169823583,-0.611901323825937,0.77946968423593
170,9.141516,-2.16569641113281,-3.79131591796875,8.71906860351563,0.268020673785505,0.781872534569279,0.562885652783739,-0.955270179807368,0.139874390799869,0.260564844845127,0.124995207885598,-0.607544644025917,0.784388745151955
171,9.141516,-4.52838317871094,-2.16449890136719,9.37290893554688,0.319037520487484,0.776730094773701,0.543051949995612,-0.940540554118519,0.188980207186374,0.282258653277849,0.116612720488066,-0.600813482841916,0.790837930460938
172,9.141516,-4.01105895996094,-1.42443786621094,8.86276977539062,0.360033098953234,0.769891926359228,0.526918010116383,-0.926447943444494,0.228532163055532,0.299110779706496,0.109865261778231,-0.595851887784236,0.795543934725395
173,9.141516,-3.34703979492188,-2.26269470214844,11.5499816894531,0.390683551920936,0.761495931121603,0.51719465305017,-0.914216464619058,0.255309170064466,0.314683147785872,0.107585398999461,-0.595769397138052,0.795917211370561
174,9.141516,-1.82260986328125,-2.11061096191406,11.1865374755859,0.419046585634121,0.74915642580889,0.512995719999333,-0.90177201027742,0.277519148785127,0.331346289458323,0.105864066371007,-0.601454712947557,0.791861747860425
175,9.141516,0.1293310546875,-2.069296875,11.0338549804688,0.453551207058601,0.731275254928661,0.509438714768231,-0.884985318652106,0.301992120383237,0.35440336482131,0.10531993327911,-0.611585857223218,0.784136755227445
176,9.141516,0.443677368164063,-1.13583801269531,9.13759826660156,0.490560308374702,0.709046232560494,0.50656097751316,-0.864886850244915,0.325191815122053,0.382388571548699,0.106401692283288,-0.625702583876234,0.772770959864472
177,9.141516,-0.714314575195312,-1.89925048828125,9.26034301757813,0.524546629779893,0.687923617205235,0.501609340102257,-0.844123174538795,0.343454671251898,0.41169764998333,0.110936465569725,-0.639374683332486,0.760850257882838
178,9.141516,-0.580792236328125,-4.31822021484375,10.5728137207031,0.554811527326432,0.66164072415266,0.504396393016898,-0.824664593786824,0.357145618790594,0.438606104304416,0.110056698569987,-0.659301569178649,0.743780185255326
179,9.141516,-0.4981640625,-2.96982421875,7.05812255859375,0.581000628956289,0.638354262517597,0.504917918753149,-0.806228770355277,0.366398661395164,0.464485942499071,0.1115053317282,-0.676945977500012,0.727537424839944
180,9.141516,-0.67060546875,-8.28317504882813,11.3667626953125,0.600458161463355,0.60727807237734,0.520253149093506,-0.791932159106955,0.361389722854815,0.49217976755157,0.110875839136598,-0.70753855797729,0.69792244359325
181,9.141516,2.70457580566406,-4.569697265625,6.58690246582031,0.626083537086677,0.581592638457236,0.519393307120324,-0.769524744005413,0.353297081392751,0.531989511778915,0.125901044286537,-0.732755876927449,0.66874341258501
182,9.141516,-1.791474609375,-6.16358276367187,0.792152709960938,0.644093311164054,0.560750966363143,0.520290457568199,-0.753989580806507,0.350683627722062,0.555446401809322,0.129009761448321,-0.750052896114998,0.648673365015515
183,9.141516,0.62510009765625,-7.39162902832031,0.867595825195313,0.655771372128238,0.550058943165877,0.517106436374839,-0.742287104273903,0.344800023523747,0.574563137180491,0.137745280593246,-0.760623496101233,0.634411644638579
184,9.141516,0.104183349609375,-7.84967651367188,-0.0820294189453125,0.665375748451942,0.542433376487528,0.512875370284397,-0.732857234177517,0.343850533968134,0.587100574521529,0.142110477044086,-0.76650690953322,0.626316030412869
185,9.141516,0.573607177734375,-8.00774780273438,-0.84065185546875,0.672482347765521,0.538697844430692,0.507515639512222,-0.726349364313042,0.348738625689652,0.592282003706118,0.14207073205208,-0.766932854530186,0.625803406619337
186,9.141516,-0.107177124023438,-8.18677551269531,-0.485590209960938,0.676456978437455,0.538944241942027,0.501941291787001,-0.72298950234113,0.356090122896258,0.592018584066627,0.140328670726241,-0.763373387310079,0.630530677857108
187,9.141516,-0.925076293945313,-8.07959838867188,0.120349731445313,0.673229005983111,0.544304204923854,0.500495392591384,-0.727861850461286,0.368534288471553,0.57827295014019,0.130306684963072,-0.753601626008714,0.644286238508132
188,9.141516,-1.92739196777344,-8.10235107421875,2.50998046875,0.665896850377764,0.55382240481797,0.499862109564843,-0.736823605129242,0.383203316962605,0.556997480060012,0.116928865475212,-0.739213069277389,0.663243302739034
189,9.141516,1.7196240234375,-6.3994921875,4.55712341308594,0.652231018601807,0.576964070049792,0.491637224226591,-0.748067767834162,0.385170118713707,0.540405953314435,0.122430850284001,-0.720247486300124,0.682828122866281
190,9.141516,-1.96511352539063,-7.87482421875,6.7587451171875,0.635201581148135,0.595300211248589,0.49207378490862,-0.763312111220827,0.386703630178838,0.517508379903275,0.117786128939331,-0.704328020806992,0.700034618383686
191,9.141516,-0.210162963867188,-5.60733947753906,5.91629699707031,0.616089810227654,0.619468239265553,0.486510479100798,-0.778911847971753,0.38725185592312,0.493287272462333,0.117173712166518,-0.682858038413061,0.721093073432122
192,9.141516,-0.0137713623046875,-4.3924658203125,8.44843139648438,0.595634421922765,0.647559037148429,0.475275634582852,-0.792790590590574,0.378726682632513,0.477544950065667,0.129238983637992,-0.661236261308749,0.73896136017971
193,9.141516,-0.836460571289063,-4.56909851074219,10.8967401123047,0.568858963200854,0.670147735694237,0.47676146271478,-0.81210971480023,0.366136830802355,0.454336474715708,0.129912628766949,-0.645635991464149,0.752513704468541
194,9.141516,1.4178515625,-1.43880798339844,10.7069348144531,0.536770380859021,0.69652644395594,0.476160131786098,-0.831476701535842,0.340862573043164,0.438701722245844,0.143262182852063,-0.631398146313787,0.76211044330594
195,9.141516,2.25071960449219,-1.56754028320313,10.7799829101563,0.505607140834326,0.715835903886642,0.481601887292951,-0.850080484729326,0.317972608539723,0.41982923873975,0.147392634211117,-0.621669026834407,0.769287353630014
196,9.141516,1.41904907226563,-3.37398376464844,13.0277087402344,0.482777449012682,0.72526991866034,0.490825304778829,-0.863509365161015,0.300885405485807,0.404746277369988,0.145868128815134,-0.619234622620591,0.771538055538355
197,9.141516,0.59396484375,-2.49441284179687,11.6505725097656,0.464573603109776,0.730895996310326,0.499962408458013,-0.872944270143506,0.283128355441856,0.397248833312839,0.148794047317835,-0.62099064157387,0.769565432280096
198,9.141516,-0.497565307617188,-1.8633251953125,8.80049926757813,0.446298561124858,0.733829596309391,0.512163760840493,-0.882363046897284,0.265451654522927,0.388549704132152,0.149174554827636,-0.625323550405258,0.765974809964753
199,9.141516,0.255668334960937,-1.18613342285156,7.14374450683594,0.427499325939872,0.739783459179415,0.519581331309636,-0.890700868710318,0.246402731856479,0.382017874205316,0.154584244991654,-0.626103926882912,0.764262771527017
200,9.141516,-0.897533569335938,-3.6739599609375,9.51361633300781,0.405618754081547,0.743452531631944,0.531744073354266,-0.900273731430183,0.224353581785219,0.373058546125026,0.158052633113491,-0.630034763763236,0.76031280511096
201,9.141516,0.671802978515625,-3.31410827636719,7.77483215332031,0.386010027843893,0.747194993856914,0.541013770212111,-0.907729344314785,0.203144235152909,0.367096522993598,0.164388855686165,-0.632797013962065,0.756666533716728
202,9.141516,1.49868347167969,-3.92364074707031,7.54670654296875,0.369391615512632,0.749754958445753,0.54901487837305,-0.91346979178852,0.184467425667672,0.362690926764623,0.170653959458335,-0.635483494005587,0.75301922616069
203,9.141516,1.94655212402344,-5.35226989746094,7.35091369628906,0.360103845119337,0.751891197992097,0.55225433190902,-0.915789013876602,0.172005439475196,0.362966404580184,0.177920495708587,-0.636454047966508,0.750513518888139
204,9.141516,2.32975524902344,-4.22182067871094,6.85215087890625,0.353057655597497,0.753829092380992,0.554158814153533,-0.917306751058768,0.162343408907717,0.363583473285337,0.184115768705472,-0.636699550073873,0.748809098936252
205,9.141516,2.26329345703125,-3.19196228027344,5.78516967773438,0.346391014388103,0.755845038673526,0.555618162647511,-0.919558210773137,0.156436425493256,0.360472386984911,0.185542345977641,-0.635787639303808,0.749231683498239
206,9.141516,3.10454406738281,-3.22130126953125,7.22577392578125,0.342402697283363,0.756172050211029,0.557641662156555,-0.92163042131296,0.154941245195764,0.355795695656485,0.182641067133251,-0.635764925909596,0.749963465496548
207,9.141516,3.91106689453125,-2.14174621582031,5.59057434082031,0.354004292057664,0.752671567754128,0.555127437890883,-0.919328037366952,0.171011376292646,0.354388302416322,0.171804892001887,-0.635799198075177,0.752490836363594
208,9.141516,3.00634826660156,-2.91354125976562,6.57313110351563,0.38499693320304,0.745921022317644,0.543487985045535,-0.908769983518491,0.203677117935293,0.364215250484344,0.160979745558425,-0.634127321674578,0.756285700926423
209,9.141516,0.28500732421875,-4.39965087890625,8.65919311523438,0.423614869561399,0.734047161961057,0.530777925599206,-0.89377999989948,0.243399289685623,0.376714875682154,0.147335515291343,-0.633980717212639,0.759184230695279
210,9.141516,0.255668334960937,-2.36568054199219,7.85207153320313,0.473491523291168,0.720235438182993,0.507017446402747,-0.86976273436428,0.291490716122283,0.398178287109794,0.138991234553048,-0.629518924258732,0.764452327302068
211,9.141516,-1.47712829589844,0.248483276367188,8.6939208984375,0.523920415899209,0.706958002217516,0.475097654071895,-0.841048406425251,0.341166026918414,0.419813434904422,0.134703288206136,-0.619528954268743,0.773329747888398
212,9.141516,-4.58586364746094,-2.30161376953125,12.3080053710938,0.566075727332153,0.689188933659411,0.452301762816351,-0.814288977575325,0.382007638167208,0.437039615345387,0.128420138314468,-0.615701858128848,0.77744420376769
213,9.141516,-2.36747680664063,-2.91833129882813,11.6200360107422,0.600118497586296,0.666286513408516,0.442628592506959,-0.790833489378992,0.411069415618938,0.453436134002742,0.120167303920055,-0.622160925800254,0.773612048429933
214,9.141516,-0.9244775390625,0.966989135742188,7.42875183105469,0.629017618257694,0.649179677713793,0.427671114251166,-0.768260579255546,0.435038923070856,0.469592182404352,0.118796120657834,-0.623944614093884,0.77238630248075
215,9.141516,0.02155517578125,-0.975371704101563,9.302255859375,0.659918578479218,0.632018097953419,0.406276498997064,-0.741930990627044,0.462872455161942,0.485064423968125,0.118515294055836,-0.621532150505265,0.774371946136454
216,9.141516,0.231718139648438,-2.82312927246094,13.4372570800781,0.685734422439473,0.61411697976586,0.390677151936047,-0.717582045533473,0.480568498242573,0.504113009577093,0.121837226698571,-0.626030553296032,0.7702216801222
217,9.141516,1.83338745117188,-2.0645068359375,11.1781549072266,0.711287543337183,0.588549637807043,0.384290716164927,-0.693452161469878,0.498222255391073,0.520479282955418,0.11486570613594,-0.636697658288634,0.762510302542635
218,9.141516,2.00762512207031,-3.65120727539063,12.5145758056641,0.736482907402844,0.553260249124019,0.389224901365114,-0.669162057986557,0.511590858262066,0.53897767476388,0.0990710212658019,-0.657402380952421,0.746998689599546
219,9.141516,0.633482666015625,-3.55061645507813,8.81187561035156,0.755736898429851,0.51761932995352,0.401163270514761,-0.650048994866817,0.51870418120451,0.555321777597098,0.0793602206667255,-0.680452938607387,0.728481814266012
220,9.141516,-0.526904296875,-4.60981384277344,6.67851196289063,0.774320568933987,0.488667848932146,0.402034065653368,-0.628715259775569,0.522091903274702,0.576313427451016,0.0717271123849667,-0.699016293054052,0.711499433164838
221,9.141516,-1.83578247070313,-5.19060607910156,3.92184448242188,0.789598041714836,0.469937996442098,0.39457979170262,-0.609326068330602,0.524492192750638,0.594667707376481,0.072502930788122,-0.709976210336385,0.700483480021848
222,9.141516,-0.877175903320313,-7.44791198730469,6.14801513671875,0.803591894010434,0.455253746350461,0.383385047067036,-0.589944977068373,0.524007638210593,0.614313372090135,0.0787717710383643,-0.719833328994168,0.689662951416599
223,9.141516,-1.35498229980469,-7.59819946289063,3.47637084960938,0.812924284807065,0.444445419959439,0.376327484842658,-0.576666140972658,0.524106836309911,0.626712203478534,0.0813035609713711,-0.726484888218808,0.682355800270709
224,9.141516,-1.15978820800781,-7.31858093261719,3.0799951171875,0.81975171951181,0.436643117700944,0.370607482549705,-0.566754143096258,0.525322021992298,0.634686154326017,0.0824430690880487,-0.730328392556611,0.678102926837085
225,9.141516,-2.19563415527344,-6.94615539550781,1.62681701660156,0.821974072675055,0.436956997538271,0.365276889704678,-0.563490525715613,0.530844308220185,0.632995061480717,0.0826864636970671,-0.726135595279954,0.682561386242074
226,9.141516,-1.84476379394531,-7.6113720703125,3.69671264648438,0.81931750230364,0.44360041402623,0.363232023773625,-0.567412091125532,0.536494503696719,0.624673647873641,0.0822335045068367,-0.717908295103887,0.691263575315201
227,9.141516,-2.35370544433594,-6.37254821777344,2.88300476074219,0.811548596797334,0.45838780239173,0.362311326975514,-0.57882167849335,0.546129809823748,0.605563948173947,0.0797141113129877,-0.70115822282874,0.708535678012917
228,9.141516,-3.91106689453125,-7.23834777832031,7.90057067871094,0.797930655260277,0.478019243303343,0.367157013316653,-0.597941702777641,0.550981974120454,0.582137942650797,0.0759762428347198,-0.684044199760533,0.725473047947815
229,9.141516,-0.238304443359375,-5.91809326171875,8.71188354492188,0.778242334574296,0.500470996918404,0.379298892589799,-0.623402579498266,0.543063098928037,0.562540393623058,0.0755519195736144,-0.674248657266869,0.734629604373909
230,9.141516,-1.16457824707031,-2.57105346679687,4.89661743164063,0.759594222652873,0.53059942540447,0.376139424512804,-0.6446267526336,0.537318520367558,0.543824564964729,0.0864463226599964,-0.655555533445081,0.750182628343325
231,9.141516,-1.55257141113281,-5.81271240234375,12.1014349365234,0.73675817315365,0.560617088318566,0.378015706785458,-0.669205367800434,0.524626486691353,0.526242553552042,0.0967035159566688,-0.640683642484418,0.761690816706173
232,9.141516,1.29510681152344,-0.520317993164063,8.3681982421875,0.7105554400473,0.595007111652603,0.375602853692588,-0.694707498264811,0.508434060041422,0.508798878187093,0.11176966705612,-0.622463929615704,0.774626489253718
233,9.141516,-0.496966552734375,-2.52375183105469,11.0021209716797,0.681740656919751,0.625322879391266,0.379738032349201,-0.721693559871272,0.489722577500617,0.489213861952503,0.119950332817198,-0.607571472006355,0.785155286590541
234,9.141516,0.683179321289063,-0.19399658203125,10.6320904541016,0.65278782420096,0.647450550629474,0.393288495972826,-0.748720371165452,0.472430748684184,0.465002143542984,0.115264315279472,-0.598010846212084,0.793156457097755
235,9.141516,0.995130615234375,0.328716430664063,9.86688171386719,0.62800317208495,0.671676110776965,0.393018088722099,-0.768749162922692,0.456928597123297,0.447482940050899,0.120982396888561,-0.583153032524454,0.803303056324718
236,9.141516,-0.442479858398438,-1.23343505859375,12.3008203125,0.603555564623716,0.69186109573193,0.396293962386966,-0.787544015779094,0.439704992073278,0.431779970767957,0.124479330100571,-0.572702142617306,0.810257460452702
237,9.141516,-0.921483764648438,-0.75922119140625,12.406201171875,0.58307248302529,0.705573577168261,0.402731184216851,-0.802106173469665,0.421221223525705,0.423318281359736,0.129043271891931,-0.569858410531505,0.81154742678782
238,9.141516,-1.52143615722656,-0.182620239257813,10.5015618896484,0.562813770754946,0.7176970444684,0.410062936401138,-0.815587735917821,0.401523168822435,0.416648280830766,0.134377470094663,-0.568937691896147,0.811327676263323
239,9.141516,-2.222578125,0.485590209960938,7.12039306640625,0.543113334794816,0.730348649373925,0.414268941541287,-0.828367310869236,0.385412551514527,0.406527690838315,0.137242500164214,-0.563957458938834,0.81431964280369
240,9.141516,-0.835263061523438,-2.12797485351563,10.854228515625,0.524765005416986,0.74207581149107,0.417067355578904,-0.838246655336291,0.365177297894631,0.404954424497249,0.148203353225332,-0.562111226628899,0.81367483369619
241,9.141516,-1.08674011230469,-1.31067443847656,8.22569458007812,0.507360789726983,0.7509462373141,0.422687565125127,-0.847702373296519,0.346778054315242,0.401429529746859,0.154873223492834,-0.561982855351595,0.812520495086621
242,9.141516,1.08015380859375,-0.928070068359375,6.6294140625,0.492202773621574,0.75934945685115,0.425587631421653,-0.855459904435775,0.3315227653625,0.397845457368984,0.161011743490853,-0.559893792094772,0.81276943842136
243,9.141516,2.58841735839844,-0.87897216796875,6.72162231445313,0.485927781253012,0.765432251926728,0.421885836591966,-0.858172769580651,0.32641621360188,0.396222100655791,0.16557079741549,-0.554586263090053,0.815487822002885
244,9.141516,2.25550964355469,-1.47353576660156,8.41549987792969,0.486320724962699,0.76659282277107,0.419318013621687,-0.85825335235343,0.329015385419617,0.393890923138983,0.163991876767888,-0.551438410190171,0.8179378607945
245,9.141516,3.73742797851563,-1.70345764160156,9.57349182128906,0.498188600739072,0.760271091776662,0.416888456427338,-0.85206583721827,0.34021362023842,0.397792033165317,0.160598652357902,-0.553391868040172,0.817291571746482
246,9.141516,2.04714294433594,-1.85015258789063,9.58546691894531,0.525476576681611,0.744694465419167,0.411466305465023,-0.836516262890825,0.363942464046965,0.409617412694569,0.155289759089722,-0.559442611925016,0.814192271324391
247,9.141516,2.30939758300781,-1.88787414550781,9.77766723632813,0.561562987529944,0.720281837182747,0.407235909591836,-0.814584388296307,0.394849618960891,0.424907110731711,0.145255930620321,-0.570340120832373,0.808463271391186
248,9.141516,-0.551453247070313,-2.03516784667969,9.52259765625,0.605774093550377,0.691004794586876,0.394398429815799,-0.782570255812149,0.428002696297981,0.452103402641217,0.14360202749727,-0.582517009038884,0.8000327442543
249,9.141516,0.309556274414063,1.29151428222656,6.45936767578125,0.648615224117949,0.662256826974115,0.375118896043108,-0.748070992385705,0.463835777993466,0.474601054996997,0.140314223774673,-0.58844903447909,0.79626606886589
250,9.141516,-5.06127502441406,-2.61835510253906,12.1086199951172,0.688383644060502,0.636714163097122,0.347452202614284,-0.71136853901364,0.499035788976274,0.494891991269235,0.141713655981296,-0.587842118117068,0.796466498903787
251,9.141516,-2.50758544921875,-3.27997924804688,11.3841265869141,0.717320162359922,0.610547721465009,0.335683280021244,-0.683231915746872,0.521966199457631,0.510632388248744,0.136550115257346,-0.595636438137933,0.791562568332765
252,9.141516,1.85194885253906,-2.11540100097656,11.2098889160156,0.748814671286467,0.581385728529887,0.318225113289182,-0.648471106324051,0.543446922812313,0.533057845218217,0.136973765112159,-0.605521326418484,0.783952875448135
253,9.141516,1.18373840332031,-0.563428344726563,11.3164672851562,0.784305237105508,0.543910041427142,0.298374197751076,-0.605779804957496,0.567744328519419,0.55740219351891,0.133776391618745,-0.617922522868975,0.774774569004888
254,9.141516,-1.58131164550781,-0.804127807617187,10.7704028320312,0.816090194493263,0.505189393750213,0.280678590017552,-0.563456922265492,0.587532479287171,0.580794182592913,0.128503273121924,-0.632130731909914,0.764131956256241
255,9.141516,-2.56446716308594,-3.59612182617188,9.723779296875,0.84059993337673,0.47162050225581,0.266394170092021,-0.526688421692588,0.596865701783991,0.605269064539793,0.126455756935023,-0.649095860321018,0.750122327125455
256,9.141516,-1.01189575195313,-6.0929296875,9.493857421875,0.857554611568179,0.443743417815493,0.260176607948476,-0.499590298720078,0.598019404130148,0.626723484248521,0.122513760871723,-0.667431323380352,0.734524204480573
257,9.141516,0.44068359375,-6.07077575683594,6.64258666992187,0.870144636961712,0.423949778792761,0.251226781670146,-0.476063349252891,0.591442662596867,0.650814308661424,0.127326345525541,-0.685902443443597,0.716467612536123
258,9.141516,-0.470022583007813,-6.91801391601563,4.58107360839844,0.880940230633727,0.404139591057088,0.246202154724945,-0.455993044550446,0.585803190651682,0.670003705321041,0.126549015691987,-0.702499688798877,0.70034244042816
259,9.141516,-0.655037841796875,-7.25870544433594,3.05724243164063,0.888786357528585,0.389258913476026,0.24194278032323,-0.440696791254637,0.580846079645531,0.684400591713862,0.125877515263599,-0.714909315955444,0.687793225549061
260,9.141516,-0.08861572265625,-8.01732788085937,2.25191711425781,0.895081005409026,0.378780764507098,0.235276701344152,-0.427340632869594,0.578032937452119,0.695167538597056,0.127318408938306,-0.722774553827051,0.679254714437467
261,9.141516,-0.93645263671875,-7.83770141601563,0.872984619140625,0.899363224447463,0.371720222421614,0.230151834131924,-0.418205870808668,0.577949628433351,0.70076963163005,0.127474076316035,-0.726497283709016,0.675242220711054
262,9.141516,-1.75914184570313,-7.91434204101563,0.348475341796875,0.902427073270227,0.367936615744147,0.22416071070479,-0.411444867415605,0.581611164879217,0.70174181432005,0.127822136213911,-0.725500585583902,0.676247293385437
263,9.141516,-2.67823059082031,-7.57963806152344,0.068258056640625,0.903957499901378,0.365738070601284,0.221577304986094,-0.409424164347428,0.590685036118881,0.695315066537212,0.123420792496488,-0.719254372123025,0.68369617240515
264,9.141516,-5.18162475585938,-7.88081176757813,2.3135888671875,0.89876362630417,0.377972424677659,0.222172883619649,-0.420232953742339,0.598166784976431,0.682349442690437,0.125012833827445,-0.706635226644024,0.69644701725557
265,9.141516,-1.02446960449219,-8.995693359375,5.90252563476563,0.893357294647194,0.38867785939549,0.225482295793674,-0.430729186471204,0.597776072792984,0.676118432464352,0.12800434376419,-0.701137139518324,0.701442513371953
266,9.141516,-1.59628051757813,-5.7815771484375,1.69926635742188,0.884274885948781,0.406452758584475,0.229900154674462,-0.449059684589144,0.605135767830817,0.657385809223554,0.128075468989847,-0.684548652420615,0.717627909652455
267,9.141516,1.772314453125,-8.39274719238281,8.95318176269531,0.870415829339382,0.432910049273176,0.234446525403413,-0.472279211489967,0.599752817728624,0.645948066040136,0.139027444879965,-0.672967641766581,0.726488762958709
268,9.141516,2.53512817382813,-3.71407653808594,4.44515625,0.855643667559463,0.460431308423384,0.236383003595694,-0.495676258790621,0.597578092063486,0.63024239016199,0.148926024041216,-0.656432353033651,0.739538778735761
269,9.141516,0.628692626953125,-4.531376953125,8.52207824707031,0.833417681326206,0.497405320789811,0.240837944067869,-0.527926009270005,0.587691801217166,0.613117016170952,0.163429180959519,-0.638127176691379,0.752385944299063
270,9.141516,0.173638916015625,-3.65659606933594,10.4967718505859,0.8072132080621,0.524659643160703,0.270442407119477,-0.570708446387756,0.576788022512129,0.584471937998927,0.150660897222098,-0.626137234098909,0.76501859985441
271,9.141516,2.91473876953125,-1.05740112304687,9.89861572265625,0.77939372468525,0.558337520209424,0.284261561678051,-0.607964786199295,0.564330893157367,0.558488551153786,0.151407531724476,-0.608103491648092,0.779285507874041
272,9.141516,1.76093811035156,-3.70569396972656,12.9247229003906,0.752416350777896,0.582763114265441,0.307012683343406,-0.643338463496136,0.550140423423853,0.53241068349673,0.141369220371711,-0.598107571567748,0.788848576321734
273,9.141516,1.98547119140625,-1.35318603515625,10.8512347412109,0.729736074848202,0.604596446975456,0.319293591181837,-0.669119419408937,0.535470247658533,0.515316229554589,0.140586143111572,-0.589690385013326,0.795299180301256
274,9.141516,0.559237060546875,-1.97289733886719,11.1194769287109,0.710323730448783,0.619983229475891,0.333258147882342,-0.690748608352839,0.522984506030772,0.499353148092977,0.135301729552661,-0.58489999283672,0.799740858253262
275,9.141516,-0.390986938476563,-2.28185485839844,11.3763427734375,0.691200187439031,0.637271488968036,0.340774632613275,-0.709289284587783,0.50794515140281,0.488774420295629,0.138387180234297,-0.579548766295676,0.803101622356698
276,9.141516,-1.53820129394531,-1.53939880371094,9.91897338867188,0.671920736305399,0.65135362140526,0.352506714836842,-0.727266937532797,0.490292632767607,0.480308167560655,0.140019019045542,-0.57909549655999,0.803145740304624
277,9.141516,-0.89813232421875,-1.15140563964844,8.33526672363281,0.654397496767723,0.664801207908098,0.360282209091806,-0.742495553644837,0.474809311439827,0.472500233426063,0.143053378295604,-0.576710908284186,0.804325965777709
278,9.141516,-0.578995971679688,-2.35669921875,8.01074157714844,0.637815866265103,0.677597520573937,0.366131835344251,-0.755674723877593,0.458709900716648,0.467483623966708,0.148817446668795,-0.574845046161639,0.80461577194982
279,9.141516,-0.856219482421875,-2.442919921875,6.94855041503906,0.62048438018183,0.689602460349219,0.373426807595109,-0.769638088976841,0.444082354590523,0.458746198172163,0.150520250951316,-0.572048345003848,0.806290484274688
280,9.141516,0.525108032226563,-2.672841796875,7.42276428222656,0.604667096109446,0.701295060665985,0.377575079643854,-0.78200443912085,0.432767417196332,0.448532518117138,0.151151447488456,-0.566478243623449,0.810096068021217
281,9.141516,1.31306945800781,-2.91773254394531,8.35023559570313,0.592877534431419,0.71063832499269,0.378799947489577,-0.790686141970885,0.424516437134497,0.441136282227874,0.152681544600909,-0.561051660414812,0.813578134099033
282,9.141516,1.74237670898438,-2.69439697265625,7.42396179199219,0.592554752307901,0.712310678118747,0.376154706677097,-0.791454981908668,0.427913912340298,0.43645010624076,0.149926238961941,-0.556330101166232,0.817324257199734
283,9.141516,1.13224548339844,-2.83270935058594,7.00842590332031,0.598662025603253,0.709439272608209,0.371886673035948,-0.788222748668968,0.439169008376706,0.431086395705267,0.14250851757473,-0.551204590476673,0.822109981605926
284,9.141516,0.194595336914062,-3.13508056640625,8.83103576660156,0.614220895164044,0.699212422007472,0.365834225919781,-0.777859596276,0.458370292606671,0.429919903397149,0.132917795743154,-0.54863345119134,0.825429703735371
285,9.141516,0.214354248046875,-2.28305236816406,8.57117614746094,0.638427729993973,0.680438570894181,0.359740718871561,-0.760026037938753,0.483521378465767,0.434243593184386,0.121533761687295,-0.550645464710325,0.825844487154868
286,9.141516,0.504750366210937,-0.640068969726563,8.47238159179688,0.672176525878506,0.654536357438676,0.346064841971577,-0.731950211346849,0.517080821233166,0.443707462662211,0.111479173692692,-0.551551974979462,0.82665761517635
287,9.141516,-1.06458618164063,0.808917846679688,8.38795715332031,0.708235784852106,0.624435205691028,0.329367191669915,-0.698673829782036,0.553026313774052,0.453890709148344,0.101276614440968,-0.551581879839329,0.827949561990516
288,9.141516,-1.63579833984375,1.85673889160156,8.97114440917969,0.744392162373214,0.594387973208634,0.304274951158097,-0.660648932117208,0.589333389243199,0.46500445676952,0.0970736683644072,-0.547164594640458,0.831376935741076
289,9.141516,-2.36747680664063,0.629291381835938,12.6253454589844,0.778066983170244,0.559048122739598,0.286490778493282,-0.621485542523766,0.618647013152964,0.48065745968502,0.0914739861069584,-0.55203357649535,0.828789141028921
290,9.141516,-5.47441589355469,0.454454956054687,9.88963439941406,0.805560437266319,0.526282844423715,0.27221085499403,-0.585795159450323,0.638414368306501,0.499270593470496,0.0889742270315831,-0.561652438795644,0.822575300455246
291,9.141516,-0.826880493164063,-0.735869750976562,11.2272528076172,0.833168727771514,0.484686315163559,0.266287526851651,-0.547549298389274,0.655443135284844,0.520176952816431,0.0775863190067113,-0.579200718491565,0.811484374958535
292,9.141516,0.59396484375,0.206570434570313,11.7110467529297,0.860432082241257,0.440364952833742,0.256389040650555,-0.504622661753471,0.666462232968141,0.548802388179901,0.070799725245359,-0.601586901738108,0.795663621489839
293,9.141516,-2.40160583496094,-0.199385375976563,9.52439392089844,0.880729758692216,0.4058323322121,0.244162262205357,-0.468765371598288,0.673324814619229,0.57174532827851,0.0676322300702066,-0.618007938581107,0.783257345517079
294,9.141516,-1.12506042480469,-3.20633239746094,10.4620440673828,0.896435445604349,0.374603640452812,0.236802880944538,-0.438772661914879,0.675085305666873,0.593075358811,0.0623060432082187,-0.635556403973845,0.769536233290915
295,9.141516,-0.359851684570313,-3.92723327636719,9.92196716308594,0.909804170103413,0.348941150843847,0.224714141322286,-0.410181960045755,0.673385011806376,0.615063724769678,0.0633019092560672,-0.651761228612365,0.755777857020327
296,9.141516,-0.913699951171875,-6.38093078613281,9.91178833007813,0.920781553971908,0.324311106261143,0.216757090358663,-0.384895543216427,0.665082182254009,0.63993836551685,0.0633778405849486,-0.672672280686457,0.737221304710377
297,9.141516,-1.65495849609375,-5.30496826171875,5.163662109375,0.928732509604807,0.30461207264507,0.211346660257579,-0.365483746992035,0.656471774647473,0.659898810254921,0.0622700272026577,-0.690113247438472,0.721017440442399
298,9.141516,-1.53580627441406,-7.06411010742188,4.02483032226563,0.934134910248211,0.286472328143282,0.212898038186676,-0.352695813635634,0.649385024298156,0.67372453811716,0.054750639260796,-0.704437857745771,0.70765081224788
299,9.141516,-1.57173156738281,-6.28273498535156,1.29690307617188,0.937119940697133,0.280490797967762,0.207680352954273,-0.344130299181538,0.643487673763853,0.683738218106324,0.0581425311886977,-0.712213820400443,0.699550512899232
300,9.141516,-1.57652160644531,-7.55928039550781,1.40527770996094,0.939244755338813,0.277982892303763,0.201357396573773,-0.337618754970689,0.642374922593485,0.688017467158397,0.0619101434384972,-0.714198831145395,0.697199515009854
301,9.141516,-2.251318359375,-6.6294140625,-0.71132080078125,0.940126231441471,0.276566050157103,0.199183053636994,-0.335383279678786,0.646660141620775,0.685090298392045,0.0606689761538821,-0.710874026209636,0.700697790914843
302,9.141516,-2.069296875,-8.65919311523438,3.16022827148438,0.939560588855644,0.277990972691336,0.199867253374238,-0.337514618570839,0.653923098941655,0.677102992846379,0.057530705890141,-0.70363740646207,0.708226389021981
303,9.141516,-3.20034484863281,-7.21499633789062,2.32077392578125,0.936148084819105,0.289112927065535,0.200101171143799,-0.346959391012985,0.667371910544796,0.658964273692958,0.0569731891104972,-0.686315123262913,0.725069381027218
304,9.141516,-3.5110986328125,-9.01126098632812,7.6496923828125,0.931307175639384,0.302396860025006,0.203034685828826,-0.359949727125189,0.678845810995854,0.640003561580624,0.0557058214650439,-0.669122189095832,0.741061642182691
305,9.141516,0.687969360351563,-7.32037719726563,7.51138000488281,0.922124244657316,0.328454801509946,0.20446104954303,-0.381107660485355,0.680077139275235,0.626300276029472,0.0666620471824491,-0.655448341214069,0.752292259341521
306,9.141516,1.32564331054688,-3.70689147949219,4.39605834960938,0.911364131110434,0.357761339994014,0.203524554123112,-0.404280615050632,0.685221724376467,0.605828666156385,0.0772826294817038,-0.634411547852204,0.76912247602847
307,9.141516,1.06159240722656,-6.70904846191406,12.1170025634766,0.89653239677539,0.38778644244713,0.214129252056728,-0.4356871812456,0.684573033862349,0.584411192061517,0.080039625376672,-0.617236936972099,0.782695484851461
308,9.141516,4.54993835449219,-2.65248413085938,8.44843139648438,0.884465548412025,0.416778794550971,0.20980021469211,-0.456676939317976,0.680946546454345,0.572501505646113,0.0957437557618305,-0.602168778071847,0.792607024917189
309,9.141516,-0.197589111328125,-3.50331481933594,9.61660217285156,0.870647585372919,0.441654838136417,0.216595904935901,-0.481848138426717,0.677127410974115,0.556166198902989,0.0989704682166036,-0.588591091725136,0.802349906937615
310,9.141516,-0.361049194335938,-2.17827026367187,11.1943212890625,0.853045387342562,0.465270564091863,0.23629826347906,-0.513666945466607,0.668856613389052,0.537379846906018,0.0919773682412446,-0.579788006874383,0.80955915831769
311,9.141516,2.67044677734375,-1.36396362304688,10.4476739501953,0.8334640782448,0.495293017305299,0.244994810729041,-0.543393152320588,0.654170380205735,0.526103597851772,0.100307089912128,-0.57161695274904,0.814366346949125
312,9.141516,-0.613723754882812,-0.76401123046875,9.15196838378906,0.81479262868921,0.519319206815745,0.257721814493834,-0.571772606006086,0.646310383591419,0.505330560210762,0.0958595809230228,-0.559097889008874,0.823541432625635
313,9.141516,0.8813671875,-1.03404968261719,12.0379669189453,0.793414033896438,0.546893112614606,0.267211702945229,-0.60042634655165,0.631143506418309,0.491066265052528,0.0999118270417467,-0.550059812821032,0.829127148956341
314,9.141516,-0.8095166015625,-0.767005004882813,10.8937463378906,0.770598353553869,0.571169206028844,0.282743550915749,-0.629253995637712,0.611507096100139,0.479685814250484,0.101082077907218,-0.5475626078391,0.830636866520144
315,9.141516,0.757424926757813,-0.0041912841796875,9.98363891601563,0.753577805840537,0.587566580939002,0.294764318580478,-0.649614137866945,0.597006285060994,0.47072812480354,0.100607964038378,-0.546213336125477,0.831582244285392
316,9.141516,0.037122802734375,-0.01676513671875,8.71427856445313,0.738382787480362,0.604124230905314,0.299707812353623,-0.665581333334401,0.581263013400208,0.468118358932557,0.108592577414538,-0.545130464096415,0.831288415199259
317,9.141516,-1.1831396484375,-0.573607177734375,8.78133911132813,0.722089105331053,0.619788442436803,0.30732655365907,-0.68257196963722,0.565977023908886,0.462347828666694,0.112618072385233,-0.543628821006578,0.831736060744773
318,9.141516,0.861009521484375,-0.952619018554688,8.92204650878906,0.708346220316518,0.632412795963209,0.313527810034931,-0.695950747417622,0.551537481606303,0.45984667396017,0.117890582033328,-0.543930567154829,0.830807648485779
319,9.141516,1.85075134277344,-0.1868115234375,7.29882202148438,0.698999462216278,0.640927461862848,0.31719353784622,-0.704673897961709,0.541780407378792,0.458157928788667,0.121796754278614,-0.543770152555763,0.830349066258689
320,9.141516,3.23926391601563,-0.152083740234375,6.43841125488281,0.70064983132412,0.640623779039295,0.3141512177199,-0.703228793857278,0.545562895428499,0.455884185535879,0.120661001800588,-0.540335359625007,0.832753638108771
321,9.141516,4.27091857910156,-0.677191772460938,7.65987121582031,0.719216879374313,0.626605210132023,0.300154945084166,-0.684888476068091,0.566740508687739,0.457966124469367,0.116853993394335,-0.534949629823002,0.836764027537053
322,9.141516,-0.65384033203125,-2.70098327636719,9.39865539550781,0.738000834196132,0.610259931288194,0.287988862614411,-0.6654393174379,0.587320210613027,0.460701079891562,0.11200572991412,-0.531636893442883,0.839533757508777
323,9.141516,1.22505249023438,-0.959205322265625,7.62394592285156,0.761734642016317,0.584981925501926,0.27848964431076,-0.640208133051498,0.613627718842381,0.462162924781955,0.0994679924749116,-0.530336845320364,0.841931677138148
324,9.141516,2.768642578125,1.38971008300781,8.16102905273438,0.792161823667416,0.553950854553968,0.256160293298636,-0.603380676469672,0.647770497592257,0.465107666795636,0.0917137088276093,-0.523002708585728,0.847382300042358
325,9.141516,-2.86085083007813,0.322728881835938,10.1117724609375,0.817796078997382,0.526776244610608,0.231767903926435,-0.568670073785978,0.677758145630041,0.466109690107789,0.0884529273498539,-0.512982147979902,0.853829839896198
326,9.141516,-3.25064025878906,-0.511336669921875,11.4392120361328,0.840898242672246,0.498478687825878,0.210734769922096,-0.534546210727462,0.704174593155958,0.467331243285266,0.0845605940591686,-0.505625493954796,0.85859907162501
327,9.141516,-1.87589904785156,-1.73758666992188,13.1773974609375,0.858516956522794,0.469396461937214,0.206435454521904,-0.506766888122943,0.715154084756624,0.48139584144247,0.0783323462244533,-0.51790114556423,0.851846492601942
328,9.141516,1.68669250488281,-0.999920654296875,13.0283074951172,0.879769561065142,0.426597481691428,0.209809694813609,-0.471243292321942,0.724315903972341,0.503285436600652,0.0627318010647288,-0.541646618993661,0.838262286678765
329,9.141516,2.00103881835938,-0.535286865234375,13.5755694580078,0.902629547132731,0.380560234679345,0.201081596432304,-0.426496453814651,0.727878284343541,0.536930142629961,0.0579713336614665,-0.570409599289761,0.819312036718372
330,9.141516,-3.63204711914063,-2.41477844238281,8.70649475097656,0.918874914241791,0.345845651851076,0.189893857385767,-0.390333603272205,0.726676699915581,0.5653146486306,0.0575201715372826,-0.593575402872715,0.802720169779492
331,9.141516,-2.80756164550781,-2.77702514648437,4.6415478515625,0.928075249180907,0.321951797984803,0.187145322228877,-0.368870242960536,0.725818785893129,0.580621937152619,0.0510986860499631,-0.607893189482312,0.792372888522184
332,9.141516,-2.16928894042969,-7.19643493652344,6.0785595703125,0.928806502619409,0.320828700070493,0.185438469317938,-0.366226677010178,0.718379831352961,0.591446057516131,0.0565376134797467,-0.617251458577758,0.784731887427576
333,9.141516,4.41881103515625,-5.7815771484375,6.79766418457031,0.935975629859805,0.304050442314393,0.177490700705596,-0.347418762707462,0.716028824821649,0.605477435866396,0.0570072243435634,-0.628375724032168,0.775818358779742
334,9.141516,-0.91729248046875,-10.0842297363281,9.18489990234375,0.943621926632281,0.28223963924906,0.17296949330834,-0.326592141042469,0.708550890558482,0.625534338704183,0.0539928975706938,-0.646758395017292,0.760781404535217
335,9.141516,-0.858015747070313,-7.40779541015625,5.45824951171875,0.951318688014777,0.261092032764992,0.163779437843973,-0.303276277909675,0.698300107856412,0.648382956766275,0.0549204250811734,-0.666489242069494,0.743488962335377
336,9.141516,-3.11711791992188,-6.48331787109375,1.64837219238281,0.956742197526226,0.247699233351455,0.152608837456383,-0.284604016382611,0.687974952731222,0.667600942385015,0.0603731838780555,-0.682155080763586,0.728710864785788
337,9.141516,-1.7483642578125,-7.079677734375,-0.17483642578125,0.960393978750185,0.23831308773483,0.144396252703045,-0.271260720580418,0.681098752663491,0.680089781271876,0.0637261881064799,-0.69232316250038,0.718768120894973
338,9.141516,-1.2310400390625,-7.59161315917969,-0.041912841796875,0.962745370675491,0.235312104399006,0.133227492531469,-0.260667347785786,0.676547047479088,0.688721007626204,0.0719297229331182,-0.697791018909416,0.712680720160244
339,9.141516,-2.20102294921875,-8.50112182617188,-0.558638305664062,0.96396082267005,0.23071196896921,0.132482148728163,-0.25703920776246,0.679183424027143,0.687488706961513,0.0686321938315201,-0.696765286090745,0.714008233894229
340,9.141516,-1.52023864746094,-8.26640991210938,-0.039517822265625,0.964009227266104,0.230135016655288,0.133131828857263,-0.257717370160359,0.685815899346789,0.680616124787522,0.0653296782744075,-0.690430609339002,0.720442646450318
341,9.141516,-2.64230529785156,-8.98731079101563,1.62142822265625,0.962854595722274,0.23304234029388,0.136390231053578,-0.262814630273801,0.692908266682896,0.671421331264169,0.0619636797692201,-0.682326462620977,0.728416845492059
342,9.141516,-1.78548706054688,-7.72992553710938,0.473615112304688,0.959240573301282,0.246532366294783,0.138127893279104,-0.275420247375606,0.706197013599991,0.652249542213725,0.063255117328077,-0.663707443344995,0.745312833500311
343,9.141516,-3.68174377441406,-9.8626904296875,7.33474731445312,0.954191190191791,0.257964034141376,0.151570873355934,-0.294343393874656,0.71846051644866,0.630219368780963,0.05367624281489,-0.645963654855157,0.761478704602726
344,9.141516,0.39038818359375,-6.93717407226563,4.57328979492187,0.948974674501702,0.272695694393957,0.158379687502493,-0.310858267754932,0.724429739088133,0.615279359716465,0.0530490765498599,-0.63311816541914,0.772235187034047
345,9.141516,-1.08015380859375,-4.79722412109375,3.21651123046875,0.93892464118241,0.303318282804805,0.162537803285352,-0.338801177291251,0.732048955119183,0.591031377826063,0.0602849935435504,-0.610001923460293,0.790103393821465
346,9.141516,1.39869140625,-8.21671325683594,10.0728533935547,0.93297411162703,0.312555943801947,0.17851635507098,-0.356133491253488,0.729600277787994,0.583825634123138,0.0522325898396402,-0.608269855118398,0.792009810490304
347,9.141516,1.05320983886719,-4.74812622070313,5.8007373046875,0.926024440464153,0.327905023212614,0.186967995697094,-0.374205357248963,0.732558543934029,0.568619671059164,0.0494882437476769,-0.596520138353426,0.801070932108749
348,9.141516,1.51065856933594,-6.39709716796875,9.42979064941406,0.916591684123244,0.353735142816263,0.186362907610055,-0.395584694302129,0.734632427185033,0.551205902147391,0.0580726633624396,-0.578953059984128,0.813290181979967
349,9.141516,1.38851257324219,-8.24904602050781,12.2128033447266,0.908728081901966,0.365654120481162,0.201271799658872,-0.414106829925747,0.729482043725216,0.54440011139908,0.0522379801640709,-0.578059695929088,0.814320687058083
350,9.141516,0.996926879882813,-2.749482421875,6.32345031738281,0.899350585811795,0.383912496926443,0.209236035385125,-0.434267837449664,0.728742798280448,0.529476514409444,0.0507933967831771,-0.567049494010961,0.822116112349795
351,9.141516,2.03397033691406,-4.56610473632812,10.7865692138672,0.888317138046775,0.406573580685227,0.213519520749697,-0.455798879623935,0.723848731861921,0.517967561450961,0.056036091815479,-0.557441420124737,0.828323016427387
352,9.141516,-0.441282348632813,-3.52966003417969,8.96336059570313,0.87533580107361,0.426235540920595,0.228277241561551,-0.480915332233064,0.718592536301315,0.502339735632376,0.0500767269495913,-0.549497980367691,0.833992980180196
353,9.141516,0.928668823242188,-2.51656677246094,8.39454345703125,0.861549761728809,0.448952305032932,0.237010202039173,-0.505441200948806,0.714818763251531,0.483283900090807,0.047552081431436,-0.536167850126403,0.842770927383218
354,9.141516,1.97110107421875,-3.98591125488281,10.5530548095703,0.848043257179504,0.471265631291162,0.242345494524079,-0.527518212154996,0.707184876617092,0.470759053156565,0.0504694937281401,-0.527065702780793,0.848324569463253
355,9.141516,0.996926879882813,-3.85298767089844,9.51062255859375,0.837348027692327,0.48411519681042,0.253930614020794,-0.544699916918229,0.699457061455722,0.462668152879579,0.0463711227925795,-0.525730249649889,0.849386498346907
356,9.141516,1.24660766601563,-2.83690063476562,8.12630126953125,0.828477561676578,0.495679113317477,0.260628368408417,-0.558215698786775,0.693573854640454,0.455357597704458,0.0449462281668443,-0.522740399031855,0.851306238549673
357,9.141516,0.187410278320313,-3.04586608886719,7.84548522949219,0.820075942625616,0.507792931232412,0.263859408240643,-0.570287296050007,0.686995229345515,0.450344262559738,0.0474114784696557,-0.519792164087627,0.852976117990664
358,9.141516,-0.515527954101562,-3.381767578125,8.09935729980469,0.810755066083441,0.520989887161819,0.266919014487822,-0.583179342315022,0.679298362732428,0.445483545247252,0.0507747724470829,-0.516839696486403,0.85457512871531
359,9.141516,-0.0383203125,-3.03149597167969,8.09396850585938,0.801401844204646,0.53325982188519,0.270904127817144,-0.595865370253179,0.672445739596451,0.439045769631851,0.0519571423235964,-0.513274477898091,0.856650317048916
360,9.141516,-0.156275024414063,-2.69798950195313,8.4544189453125,0.790813126532582,0.546757064760634,0.275084189000566,-0.609724598478629,0.664543102043912,0.431993494784273,0.0533901949222681,-0.509351722938277,0.858900640019537
361,9.141516,0.009580078125,-1.96810729980469,8.27598999023438,0.778390865389987,0.560661060492191,0.282430231960389,-0.625628668656444,0.655574583506865,0.42286018305696,0.0519271569854585,-0.505846953838384,0.861058900226829
362,9.141516,1.74596923828125,-1.24421264648438,9.12562316894531,0.766196374580215,0.574131640987429,0.288645066469561,-0.640477630478424,0.645751968221045,0.41568353394787,0.052263949686931,-0.503365924905262,0.86249128993132
363,9.141516,3.57516540527344,-0.30416748046875,9.37829772949219,0.759705823483523,0.579818426211973,0.294376721889304,-0.64825358285972,0.63970752415311,0.412966797516985,0.0511307546859814,-0.504564045654235,0.86185890362534
364,9.141516,3.51888244628906,-0.720302124023438,8.17480041503906,0.763394814100681,0.575295462480343,0.293706466823111,-0.644005169700793,0.642787963569627,0.414826439958527,0.0498567869285575,-0.505824836024825,0.86119424989814
365,9.141516,2.58422607421875,-1.14841186523438,7.42096801757812,0.773423359261526,0.563539579294452,0.290240331307088,-0.632185123919315,0.652181277459866,0.418331866376371,0.0464572539409714,-0.507033257192711,0.860673573230185
366,9.141516,1.39809265136719,-1.60645935058594,6.62342651367188,0.789394258627906,0.54486815106972,0.282799226298735,-0.612542112407009,0.668637772834981,0.421563387008686,0.0406062184062697,-0.506006152816485,0.861573507217232
367,9.141516,0.722697143554688,-1.64238464355469,6.87909484863281,0.813820605889062,0.516962964887186,0.265415361961983,-0.58019929355481,0.697188449157667,0.421066557826228,0.032631291559793,-0.496666446718699,0.867327873133893
368,9.141516,-1.3651611328125,-2.26628723144531,9.91238708496094,0.841726582360072,0.482679022713119,0.241903537760701,-0.539208621878177,0.72880855392034,0.422009660819254,0.0273938431161415,-0.485653222747726,0.873722223932799
369,9.141516,-4.20385803222656,-0.699345703125,10.0650695800781,0.866208571625687,0.449794601807142,0.217640820223005,-0.499081879444754,0.757438184457318,0.420956855670382,0.0244946535407321,-0.473257026267077,0.88058378308754
370,9.141516,-3.40931030273437,-1.77890075683594,9.73695190429688,0.885758597074374,0.418363250996871,0.201007208637321,-0.463743899676547,0.779668749940481,0.420782884489184,0.0193210564314505,-0.465927924234616,0.884611703628657
371,9.141516,-2.61117004394531,-1.55855895996094,10.5225183105469,0.897459701917582,0.395918941423243,0.19445892948462,-0.440851099850176,0.790390818926081,0.425361800257439,0.0147102411569722,-0.467472507405149,0.883885209529748
372,9.141516,-1.98187866210938,-0.551453247070313,7.25331665039063,0.906401199251055,0.3781868646265,0.188179598841711,-0.42226274940437,0.79912255131845,0.427898724512886,0.0114471158687362,-0.467309151845189,0.88401986410941
373,9.141516,-1.19391723632812,-2.41118591308594,10.2189495849609,0.914688340948507,0.358139927181391,0.187299309906301,-0.404150524280635,0.807358227997841,0.429924464770122,0.00275547755510043,-0.468944009709791,0.883223597454658
374,9.141516,0.214953002929687,-2.60158996582031,11.5020812988281,0.923282667353162,0.335881639686058,0.186366950629758,-0.384100798386689,0.812293554023805,0.438914295472457,-0.00396141943468542,-0.476825655993027,0.878988965199724
375,9.141516,-0.972976684570312,-2.86025207519531,10.8817712402344,0.933408440186694,0.308219983505148,0.183709350759101,-0.358660079568478,0.816519044780507,0.452393188315941,-0.0105655625584875,-0.4881568306178,0.872691971779853
376,9.141516,-1.31486572265625,-2.79618530273438,10.2051782226563,0.94426055214891,0.275559553933499,0.180108139436859,-0.328656579420761,0.820496317884455,0.467729243410648,-0.0188908035530721,-0.500851998672286,0.865326766584217
377,9.141516,-3.60510314941406,-3.24225769042969,7.48443603515625,0.950149940987187,0.257796418890385,0.175374160152909,-0.311126746110918,0.820682107843325,0.47925048327599,-0.0203773770755057,-0.509923410203073,0.859978417304988
378,9.141516,-3.59672058105469,-4.58466613769531,6.36656066894531,0.95382250866412,0.244408171035778,0.174606036254854,-0.299381440514508,0.820699755679989,0.486644289088308,-0.0243592906535299,-0.516446083301784,0.855973170140924
379,9.141516,-3.08658142089844,-6.00251770019531,6.37614074707031,0.955911634692881,0.237652870171286,0.172493651935758,-0.292641792308633,0.819686867152227,0.492416715001185,-0.0243665355185203,-0.521185718451223,0.853095374989988
380,9.141516,-2.50758544921875,-6.02826416015625,6.39350463867188,0.957497394988466,0.229536613996832,0.174675932587099,-0.286933705233766,0.819821774061896,0.495541428716943,-0.029458231296632,-0.524600039657715,0.850839004160011
381,9.141516,-2.43753112792969,-5.85103271484375,6.13244750976563,0.95789659918646,0.227447327058284,0.175219344483014,-0.285430338238845,0.820366990536295,0.495507338847047,-0.0310423465587479,-0.524657711515294,0.850747117813315
382,9.141516,-1.3364208984375,-6.36775817871094,7.59161315917969,0.958293238226458,0.228334590974102,0.171864435338259,-0.284466232182978,0.819852474455387,0.496911343075401,-0.0274414343114361,-0.525076408434115,0.850612563385272
383,9.141516,-2.20042419433594,-5.79654602050781,6.87011352539063,0.958131685462393,0.229678062156619,0.170972691026888,-0.285151773390199,0.819475348684516,0.497140441958624,-0.0259256522660476,-0.525079175612946,0.850658403762761
384,9.141516,-1.06578369140625,-6.29830261230469,7.48802856445313,0.957662050542517,0.231217091240285,0.171528579744263,-0.286787035848439,0.818383862465221,0.497997037868472,-0.0252307950720572,-0.52610503739737,0.850045232093648
385,9.141516,-0.458646240234375,-6.06478820800781,7.20242248535156,0.957620417241082,0.232008896568879,0.170689801675165,-0.287084519015028,0.816874418429874,0.500298574310147,-0.0233584122946304,-0.528098529090687,0.848861783889066
386,9.141516,0.0173638916015625,-5.65224609375,6.77850402832031,0.958146629296643,0.231208725498451,0.168812209335888,-0.285437785450582,0.81670682812763,0.501512938543737,-0.02191591669425,-0.528708314804192,0.84852060107717
387,9.141516,-0.472417602539063,-6.36835693359375,7.01860473632813,0.95864058755883,0.230802966416218,0.166547934776556,-0.283931291130607,0.816165515737843,0.503246334151863,-0.0197799343216438,-0.529720531614412,0.847941573803512
388,9.141516,-0.526904296875,-5.74565185546875,5.97198120117188,0.958656391513979,0.23189254516852,0.164935655649901,-0.283972349135196,0.817002748078346,0.501862744741099,-0.0183746547188006,-0.527951093499859,0.849075977128236
389,9.141516,-0.120349731445313,-5.96060485839844,5.6666162109375,0.958460061078738,0.233123071279273,0.164340941199265,-0.284650305628088,0.818404065799555,0.499188329780047,-0.0181249778697086,-0.525231776190355,0.850766164381933
390,9.141516,0.664617919921875,-5.98874633789063,6.32045654296875,0.958976875697353,0.232351695136251,0.162407024617334,-0.282954814894622,0.819535042572834,0.498295983049325,-0.0173183314927994,-0.523808174585367,0.851660185538723
391,9.141516,-0.432301025390625,-6.01928283691406,6.09891723632813,0.959468694285216,0.231923029093193,0.160098511120065,-0.281328368179877,0.821620339596625,0.495776529112033,-0.0165581986904098,-0.520722311925814,0.853565521749071
392,9.141516,-0.803529052734375,-6.64977172851563,6.70725219726563,0.959544124788244,0.230803633251898,0.161259900353702,-0.280919278898983,0.823353630939147,0.493125903965912,-0.0189586741951459,-0.518477078854067,0.854881329411116
393,9.141516,-0.362845458984375,-6.15041015625,6.05101684570313,0.959828491453086,0.230910568964739,0.159403814682317,-0.279963627592113,0.825998091238197,0.489231561222618,-0.0186985085062591,-0.514205661590025,0.857463062393014
394,9.141516,-0.750838623046875,-6.36057312011719,6.5000830078125,0.959964091827128,0.230620001320551,0.159007413014071,-0.279418348363506,0.828571025583275,0.485175681750117,-0.0198577189105012,-0.510180821429804,0.859837891956898
395,9.141516,-0.4454736328125,-5.8103173828125,6.19471801757813,0.960190778872077,0.232211522672046,0.155278707192469,-0.278786075425925,0.83172984946421,0.480108093723543,-0.0176633042674721,-0.504284905830597,0.863356671042612
396,9.141516,-0.758023681640625,-6.12705871582031,7.22757019042969,0.960154505100393,0.233237193104895,0.153960183450039,-0.278902952738711,0.834759048618103,0.474753066028887,-0.0177895837233029,-0.49877624492627,0.866548203049433
397,9.141516,-0.889151000976563,-5.31873962402344,6.91921142578125,0.959461286077048,0.234459842608494,0.156405315521492,-0.280996502370814,0.838688359174281,0.466522027176554,-0.0217946363756453,-0.49155917079183,0.870571407430603
398,9.141516,0.0383203125,-6.83837951660156,9.28608947753906,0.958942736231572,0.236931467910513,0.155859899084008,-0.282809226660541,0.839915137783326,0.463207839568897,-0.0211605752373237,-0.488268410647451,0.872436925639578
399,9.141516,0.0047900390625,-6.21507568359375,9.71839050292969,0.959686123159007,0.235881640791665,0.152847625279122,-0.280527974467422,0.837696268902965,0.468581920913789,-0.0175100130565437,-0.492569601785862,0.87009688359359
400,9.141516,-0.729882202148438,-7.32935852050781,10.36564453125,0.960712244177759,0.232429728271627,0.151685217811469,-0.277148705034461,0.832635835988944,0.479485307308488,-0.0148519084516682,-0.502686767323919,0.864341040777755
401,9.141516,-1.63639709472656,-6.57492736816406,8.47896789550781,0.961599067727842,0.22753913858899,0.153470431533649,-0.274085921190423,0.825241278072207,0.493815492639657,-0.0142877832479966,-0.516916601954251,0.855916518051806
402,9.141516,-0.844244384765625,-7.05812255859375,7.09165283203125,0.961962596896661,0.225381243596796,0.154373758154014,-0.272990522278668,0.81419835217294,0.512403374369149,-0.010204749769229,-0.535055453531344,0.844755304646568
403,9.141516,-0.383203125,-7.73950561523438,6.61085266113281,0.962408387427002,0.220195148669633,0.15901003840172,-0.271413315133445,0.801760237330684,0.532461580025939,-0.0102424693522448,-0.555602932261704,0.831384672389241
404,9.141516,-0.573607177734375,-8.65799560546875,5.74984313964844,0.96279712840015,0.215912119258267,0.162491988423523,-0.270135733490071,0.784504809487895,0.558192519998381,-0.00695521647454177,-0.581321047827933,0.813644556496279
405,9.141516,-0.629291381835938,-8.41011108398438,3.5589990234375,0.963349807238275,0.212481527345373,0.163733776084709,-0.268243641357425,0.766659674173807,0.583333774838233,-0.00158043199458033,-0.60587502385615,0.795558267949005
406,9.141516,0.0353265380859375,-8.93701538085937,2.11420349121094,0.964182457015861,0.211705900679761,0.159789865761969,-0.265081548248848,0.748307929489763,0.608084710744101,0.00916309777588561,-0.628661955489685,0.777624705985499
407,9.141516,0.476010131835938,-8.05744445800781,-0.158670043945313,0.96555123477527,0.205974326450685,0.159013804014429,-0.259803594076518,0.728823070246563,0.633497454439478,0.0145912826330134,-0.652986607151755,0.75722888570865
408,9.141516,-0.1676513671875,-7.59760070800781,-2.68541564941406,0.966547553629148,0.20129790428343,0.158949615616426,-0.255803565684657,0.711322676315832,0.654663719738538,0.0187179688141139,-0.673423495201929,0.739019914314555
409,9.141516,0.427510986328125,-6.10310852050781,-5.27802429199219,0.967552361848205,0.193681336362882,0.162265113399799,-0.252052592104503,0.694962013424228,0.673422074712987,0.0176611974498412,-0.692470461349819,0.721230020355924
410,9.141516,0.334703979492187,-6.46355895996094,-6.51265686035156,0.968300612247667,0.191272494631818,0.160651041447339,-0.248846776407821,0.682900490743156,0.686820356144307,0.0216611678408482,-0.705026065149423,0.70885050699544
411,9.141516,0.244890747070313,-9.8722705078125,-2.81833923339844,0.968560015964546,0.184520793259785,0.166863933579245,-0.248138149859551,0.668380136956876,0.701209990734435,0.0178592849531458,-0.720569267576885,0.693152924371437
412,9.141516,0.538280639648438,-7.003037109375,-6.543193359375,0.969328029949684,0.180973480836818,0.166288212413482,-0.244939692998496,0.65576494370526,0.714126659214624,0.0201920070242635,-0.732953571408887,0.679978929828925
413,9.141516,0.276624755859375,-6.58750122070313,-7.01980224609375,0.969786364790326,0.178720971762686,0.166051862136402,-0.242859060531593,0.642799552444963,0.726517867704758,0.0231059166552169,-0.744894321114584,0.666782248554028
414,9.141516,0.8957373046875,-5.19599487304688,-9.39446411132812,0.970322734118227,0.17529332674087,0.166571429883538,-0.240681100830233,0.633515868843255,0.735343628262953,0.0233751867687817,-0.753611235003761,0.656904640811458
415,9.141516,1.63280456542969,-3.84520385742187,-10.4967718505859,0.970662006980449,0.175676563903022,0.164173728409616,-0.238996591910536,0.629996755786345,0.738907786367033,0.026379864666742,-0.75646667645965,0.653500015414121
416,9.141516,1.76932067871094,-2.83749938964844,-12.1152062988281,0.970799731726684,0.176858827085761,0.162076636691556,-0.238409405160731,0.636312894047793,0.73366672024798,0.0266239818641783,-0.750884049737621,0.659897194598769
417,9.141516,1.09572143554687,-3.50391357421875,-10.5913751220703,0.970843408256648,0.175905230462192,0.162850933496435,-0.238886359871089,0.653530934832857,0.718213494919187,0.0199093875384871,-0.736175703967834,0.676497560361682
418,9.141516,0.629291381835938,-5.10977416992188,-7.87302795410156,0.970237483152447,0.178740396234681,0.163374101496765,-0.241752520343344,0.676062814514601,0.696056599522078,0.0139622775236435,-0.714836304047624,0.699152424884507
419,9.141516,0.690963134765625,-5.84624267578125,-5.65523986816406,0.969213470030178,0.186769785207904,0.160444061421591,-0.245903759590867,0.7011222656414,0.669297325290448,0.0125136138321081,-0.688145781034269,0.725464536358323
420,9.141516,0.666414184570313,-8.29515014648438,-1.91781188964844,0.968160120008151,0.188924655162654,0.164235978693696,-0.250316229480084,0.723318232132885,0.643546828383943,0.00278698487211788,-0.664167305530641,0.747578773761997
421,9.141516,1.81901733398438,-9.321416015625,1.00471069335938,0.967626775089459,0.196851343247925,0.157949272842457,-0.252315861734714,0.739808017501853,0.623715322208014,0.00592706057352275,-0.643376752689639,0.765526762465881
422,9.141516,0.850830688476563,-8.31730407714844,0.0496966552734375,0.966575757895128,0.202791867944473,0.156865428138422,-0.256364214967602,0.757453168183941,0.600451569480967,0.00294847986325771,-0.620596613190648,0.784124448134857
423,9.141516,1.17296081542969,-8.71427856445313,3.0273046875,0.964871065000494,0.213288218725341,0.153401315762886,-0.262685372228599,0.773206231641131,0.577190192716789,0.00449701478048761,-0.597210397686019,0.802072015316438
424,9.141516,2.14234497070313,-8.19156555175781,3.77754455566406,0.963125110781987,0.222369180410314,0.151466064135932,-0.269019419251088,0.786889491339651,0.555367878513902,0.00430964580820874,-0.575636062128555,0.817694656293007
425,9.141516,1.69447631835938,-7.022197265625,5.95701232910156,0.962440761250436,0.230209147771645,0.14391500743819,-0.271461308776228,0.808061458440454,0.522824480318762,0.00406680724636276,-0.542254947110065,0.840204161744919
426,9.141516,1.75554931640625,-6.69527709960938,6.67671569824219,0.96099343463882,0.234891844448468,0.146004931398498,-0.276540626764638,0.823928302704425,0.494638690107464,-0.0041110010587245,-0.515720828951287,0.85674682739774
427,9.141516,-0.293988647460938,-1.62082946777344,3.19974609375,0.958993707404105,0.242930300593455,0.145999788400202,-0.283113945134521,0.845278886150535,0.453155711316186,-0.0133252853514543,-0.47590805170924,0.879394088613642
428,9.141516,4.61041259765625,-6.26417358398438,12.2457348632813,0.957741556981536,0.249479065326654,0.14314784662831,-0.287135995286549,0.858440790675187,0.425008622401666,-0.0168531967705201,-0.448151319164296,0.893798839163442
429,9.141516,1.17954711914063,-0.252674560546875,6.77012145996094,0.956635517290215,0.253172755157349,0.144055694455027,-0.29006008231331,0.873311083313324,0.391398646408625,-0.0267139609058441,-0.416210653165131,0.908875710141148
430,9.141516,1.60047180175781,-2.83749938964844,12.3636895751953,0.955662450299941,0.258309361372001,0.141370275922138,-0.292909431398886,0.883170187452762,0.366352951390098,-0.0302216161760794,-0.391518446337134,0.919673833537447
431,9.141516,0.89334228515625,-1.18433715820313,12.3319555664063,0.955135564212536,0.260798833526772,0.14035676829949,-0.294322320092708,0.888662603209213,0.35164349781088,-0.0330215970487054,-0.377177340369885,0.925552174671884
432,9.141516,-0.0622705078125,0.323926391601563,11.1086993408203,0.954569466701041,0.263669865071619,0.138835642020358,-0.295885618516238,0.893926363613223,0.33667099250233,-0.0353388454445486,-0.362455319577951,0.931330933295084
433,9.141516,0.147892456054688,-0.67060546875,11.6344061279297,0.954335166562661,0.265766115525889,0.136428595609934,-0.296588066897063,0.897585382990691,0.326153336355337,-0.0357758079724577,-0.35172269201707,0.935420354431196
434,9.141516,-0.0245489501953125,-0.0047900390625,10.5117407226563,0.953776629261739,0.26663553845737,0.13862045702444,-0.297869279727822,0.899881677853375,0.318570020652012,-0.0397999204590299,-0.34513541617073,0.937708649227527
435,9.141516,0.207169189453125,0.17004638671875,10.5680236816406,0.953421427047643,0.269608926871505,0.135272351194293,-0.299294321316802,0.901378392534066,0.312953515238636,-0.0375565130696621,-0.33886283364202,0.940085894108698
436,9.141516,0.84544189453125,-0.360450439453125,12.7235412597656,0.953947567762026,0.268670785619219,0.133416816465044,-0.297987134128056,0.899842012338808,0.318571845466911,-0.0344631086099833,-0.343657331923527,0.938462536471297
437,9.141516,0.746647338867188,0.685574340820313,11.2404254150391,0.955122832463805,0.266518358361262,0.129260742542878,-0.294783240700123,0.898022843067227,0.326585079775222,-0.0290381801883623,-0.350032767017422,0.936287266871378
438,9.141516,0.117954711914063,-1.00890197753906,12.2086120605469,0.956812829273841,0.260692262424961,0.128641960684461,-0.289560033988952,0.893883554336731,0.342238481183296,-0.0257720091049165,-0.36470773997557,0.930765313034713
439,9.141516,0.85023193359375,-1.12446166992188,11.1308532714844,0.958440570385867,0.253519930995582,0.130840810248217,-0.284292339816139,0.887080257476437,0.363684591806422,-0.0238650070244932,-0.385767107700403,0.922287482326518
440,9.141516,1.13224548339844,-3.15483947753906,9.73216186523438,0.960441178646852,0.246108271953672,0.130320607869297,-0.27785414761363,0.878299252787667,0.389085460029707,-0.0187033423042272,-0.409903819241298,0.911936973676388
441,9.141516,1.09572143554687,-4.45174255371094,10.0920135498047,0.961676448375439,0.236961932767514,0.137940027037428,-0.273530852929154,0.863905205122057,0.422905035508999,-0.0189547127609851,-0.444428665797001,0.895613688976473
442,9.141516,0.996926879882813,-3.08658142089844,6.35698059082031,0.962259057778122,0.229175948254739,0.146751117425054,-0.27136993694686,0.848488645709101,0.454340594074745,-0.0203927204025804,-0.477017193447235,0.8786573473831
443,9.141516,0.880169677734375,-6.54019958496094,6.17555786132813,0.962854093357954,0.224794964469382,0.14959685442228,-0.26958074753942,0.831937876952864,0.484979988708039,-0.0154342301369128,-0.507293399168934,0.861635184808344
444,9.141516,1.41725280761719,-7.49820739746094,6.72820861816406,0.963799020755761,0.215420780921518,0.157115673111886,-0.266114758998719,0.813795649982397,0.516642599010943,-0.0165644991862493,-0.539750430492549,0.841662099746578
445,9.141516,1.48790588378906,-7.06411010742188,1.88068908691406,0.965691647504757,0.208702001941981,0.154541632982694,-0.259504425742222,0.798103100279308,0.543772833400821,-0.00985367747330088,-0.565221121075608,0.824880590952585
446,9.141516,0.396974487304688,-8.37119201660156,2.07468566894531,0.967344644215804,0.198149035249933,0.158054734622286,-0.253278212715618,0.779591184937992,0.572789430184042,-0.00972040485692094,-0.594116608248329,0.804320190927046
447,9.141516,1.50706604003906,-7.11739929199219,-1.638193359375,0.969880399684565,0.186070093779649,0.157193926436553,-0.243448488629661,0.761813461094732,0.600310822723362,-0.0080525580806269,-0.620498324490646,0.784166427241475
448,9.141516,0.595162353515625,-8.18438049316406,-0.82149169921875,0.972048994905708,0.174233250769419,0.157364309260786,-0.234696386764106,0.738806255510652,0.631730102858969,-0.00619334664596398,-0.651005446324876,0.759047792508925
449,9.141516,0.046702880859375,-6.30309265136719,-6.13723754882812,0.974106968125507,0.162452345291441,0.157241375466648,-0.225986126376795,0.720455480787065,0.655647901612665,-0.00677387145905388,-0.674205558945631,0.73851268029213
450,9.141516,-0.664019165039063,-7.03836364746094,-6.34799926757813,0.975831293268095,0.151922933469047,0.157075489382901,-0.218389302576786,0.703345602241041,0.676469567924687,-0.00770711351566569,-0.694423779902696,0.719524992135027
451,9.141516,-1.140029296875,-6.79586791992188,-7.25571166992188,0.977416407736961,0.144511169688659,0.154187184038723,-0.211237130912709,0.688856466595222,0.693437555194204,-0.00600336658402351,-0.710347302567669,0.703825737895749
452,9.141516,-1.32085327148438,-6.15160766601563,-8.31490905761719,0.978441417036548,0.144539439468329,0.147515232656471,-0.206515133731826,0.677922343971825,0.705530151789045,0.00197306037356947,-0.720784049478017,0.693156880547856
453,9.141516,-1.07296875,-5.99174011230469,-8.28497131347656,0.979387168056351,0.143360293841884,0.142297579726886,-0.201841758419712,0.667418249769887,0.716807355174415,0.00778971145801896,-0.730753519337177,0.682596963347868
454,9.141516,-1.00770446777344,-4.92595642089844,-9.17651733398437,0.980341754288888,0.140318243230174,0.138711338449976,-0.197039784926867,0.659667961983283,0.725267883673885,0.0102648893691168,-0.738342041705347,0.674348323566256
455,9.141516,-1.28253295898438,-3.90927062988281,-9.80401245117188,0.981387982651367,0.137949352621799,0.133594923626268,-0.19155086046315,0.653811801272825,0.732009833521525,0.0136343449900891,-0.743975876374773,0.668067361879834
456,9.141516,-1.96511352539063,-3.68892883300781,-10.4782104492188,0.981900724331966,0.132952048098404,0.134887806946366,-0.189149965571976,0.652062211335165,0.734191502996878,0.0096570223402823,-0.746417192630994,0.665408232940038
457,9.141516,-2.38843322753906,-3.0416748046875,-11.6116534423828,0.982090905682946,0.130631452821213,0.135767729997481,-0.188304207349058,0.656674749710515,0.730287476674272,0.00624327394023709,-0.742774324156706,0.669512751860677
458,9.141516,-1.97589111328125,-2.68661315917969,-11.3919104003906,0.981897054926353,0.133776280480359,0.134097279270668,-0.189315692339069,0.670147072648207,0.717678528071739,0.00614346491272873,-0.730073152363432,0.683341386158476
459,9.141516,-3.00994079589844,-3.075205078125,-11.4056817626953,0.981160673523195,0.137273148592866,0.135940484797249,-0.193184686810353,0.69040405662333,0.697152720270126,0.00184648679819892,-0.710280452549168,0.703916379418076
460,9.141516,-2.24473205566406,-5.46663208007813,-6.00790649414063,0.979645314530005,0.145519623318534,0.138271822685023,-0.200721647137073,0.718441373604414,0.665997607401095,-0.00242447726056214,-0.68019558358066,0.733026663899328
461,9.141516,-2.27586730957031,-10.0566870117188,0.017962646484375,0.977409145166996,0.148991157106666,0.149909966473009,-0.210892068335442,0.734462046313917,0.645050415113093,-0.0139963729987821,-0.662092997718894,0.749290974131204
462,9.141516,0.404159545898438,-6.55397094726563,-4.77746520996094,0.975895969597266,0.165417562370543,0.142351981311115,-0.218188997869521,0.753115964003913,0.620652806302486,-0.00454067533599289,-0.636752208336841,0.771055126074426
463,9.141516,-0.214953002929687,-9.55912170410156,0.719703369140625,0.972427120079174,0.175993087604065,0.153009572413334,-0.23280519043033,0.771089756159257,0.592640136385442,-0.0136835464416615,-0.611920763711974,0.790800695178585
464,9.141516,1.84177001953125,-6.66354309082031,0.52450927734375,0.969962055698548,0.191527217836363,0.14996978139915,-0.243025350398389,0.789828522657723,0.563124838610462,-0.0105966772521799,-0.582656184747216,0.812649666711943
465,9.141516,1.47114074707031,-6.43122619628906,0.775986328125,0.96715324211482,0.205358019552136,0.149808845107412,-0.253876590245089,0.809811337733167,0.528916131541047,-0.0126997319782475,-0.549575910211177,0.835347254573353
466,9.141516,1.51664611816406,-7.39282653808594,6.56295227050781,0.965428481472825,0.219044877595864,0.141305303368589,-0.260571794791906,0.82570278317059,0.500317153037218,-0.00708427272205971,-0.519840605823896,0.854233900999396
467,9.141516,2.76924133300781,-6.29830261230469,4.26014099121094,0.96452503656094,0.22354758733625,0.14042054708361,-0.263767981493528,0.837945985366718,0.477779214226226,-0.0108584430720266,-0.497868458334069,0.867184578051357
468,9.141516,0.7807763671875,-4.7852490234375,4.97804809570313,0.963464946573931,0.228895019460017,0.13907683771819,-0.267306480323858,0.854355734629473,0.445671991808555,-0.0168089946208639,-0.466565481762348,0.884326924235434
469,9.141516,2.40160583496094,-5.25886413574219,8.25563232421875,0.962504810912538,0.231659054801585,0.141133168669363,-0.270234070849888,0.864161027568725,0.424498840261388,-0.023622783962025,-0.446721166679845,0.89436131586629
470,9.141516,2.442919921875,-5.6330859375,9.9776513671875,0.961694103027862,0.240954713073979,0.13071066692842,-0.273685785020448,0.87094939641262,0.408097096248227,-0.0155094577331828,-0.428238222413565,0.903532778367721
471,9.141516,2.67224304199219,-4.47449523925781,9.58127563476562,0.960624727867973,0.245004446901845,0.131045614985412,-0.277228829534858,0.876675442661685,0.393172156069922,-0.0185555458910911,-0.414020517888014,0.91007840458085
472,9.141516,1.42084533691406,-2.18964660644531,7.76644958496094,0.960447015218893,0.25112076178593,0.120332431028274,-0.278190325349556,0.884405871338458,0.374748445792603,-0.0123155933283037,-0.393401344357284,0.919284345792342
473,9.141516,1.48311584472656,-4.25654846191406,11.8343902587891,0.959682564683468,0.252645190768147,0.123206260491459,-0.280491800995266,0.889243351902385,0.361345555766005,-0.0182681311850591,-0.381335375593634,0.924256245152754
474,9.141516,1.02087707519531,-0.226928100585938,5.97138244628906,0.959444248649716,0.254906740594478,0.120371455638292,-0.281055190442719,0.897985524900462,0.338570490436556,-0.021787924595728,-0.358670532200155,0.933209909759358
475,9.141516,1.99984130859375,-3.34105224609375,11.7242193603516,0.959028031389541,0.256730663512769,0.119810689929556,-0.282228841474152,0.902661455671357,0.324883329035865,-0.0247409791491877,-0.345386251691583,0.938134436577817
476,9.141516,1.81302978515625,0.0413140869140625,7.85386779785156,0.958640268579215,0.258440280325339,0.119236978172594,-0.283161317231862,0.908365849442746,0.30771927464765,-0.0287837433612863,-0.328755387897323,0.943976372080675
477,9.141516,1.4609619140625,-0.685574340820313,10.6075415039063,0.958747131106656,0.259618161239653,0.115768514498971,-0.282725569361731,0.913170323723453,0.293574883632591,-0.0294990003871704,-0.3141947966236,0.948900120534723
478,9.141516,1.03105590820312,-0.23231689453125,11.3739477539063,0.958560554639784,0.260040865199105,0.116363273910509,-0.28301468540316,0.915973256051472,0.284421662403931,-0.0326243917157324,-0.305567901823745,0.951611216012198
479,9.141516,1.0873388671875,0.426912231445313,11.0368487548828,0.958442843891308,0.261453979682069,0.114145221108684,-0.283554659505357,0.917050961593002,0.280382397653903,-0.0313698910795516,-0.301096911890107,0.953077425807525
480,9.141516,1.48072082519531,-0.708327026367188,13.3288824462891,0.958982814344121,0.260384259144411,0.112035705837226,-0.28203305571037,0.916119991216818,0.284923704137736,-0.0284485022329839,-0.304834708133299,0.951980295719395
481,9.141516,1.16158447265625,0.18920654296875,11.7230218505859,0.959949918898233,0.256752466241528,0.112135294560496,-0.278966078573264,0.91301298623783,0.297632682960956,-0.0259630547650292,-0.316994413263033,0.948071970763452
482,9.141516,0.0892144775390625,-1.30348937988281,12.3157891845703,0.959854224547796,0.253803435371508,0.119430665288989,-0.27917556749164,0.905720070352939,0.318954787823585,-0.0272189296900255,-0.339492224290172,0.940214953887164
483,9.141516,1.0106982421875,-2.05851928710937,11.2823382568359,0.958608340764424,0.250416853219401,0.135504422955753,-0.282747490960159,0.893261532795067,0.349482031561484,-0.0335246979496167,-0.373329926006877,0.927092692763289
484,9.141516,1.81183227539063,-2.8692333984375,9.48128356933594,0.959505105186469,0.239252088847354,0.148688907129219,-0.278929272729059,0.880692398017833,0.382856841245441,-0.0393498911808109,-0.408826782458998,0.911763263138125
485,9.141516,0.786763916015625,-3.80568603515625,6.94615539550781,0.960723976145559,0.228817765203437,0.157009146187006,-0.274401240034294,0.867698007731327,0.414492613742064,-0.0413932497722713,-0.441296496367681,0.896406158594919
486,9.141516,0.266445922851562,-6.07197326660156,6.255791015625,0.961297228338248,0.221260228776476,0.164169272249665,-0.272482571227984,0.851649925619204,0.447711572968347,-0.0407539834395337,-0.475117159608645,0.878978269059721
487,9.141516,0.1868115234375,-5.97018493652344,3.27219543457031,0.96227603726185,0.213139489526108,0.169104660243832,-0.269238546176875,0.835488091922171,0.479030535048461,-0.0391846062146186,-0.50648909786964,0.861355536567221
488,9.141516,-0.0143701171875,-7.71854919433594,2.56506591796875,0.963698608449979,0.206467117918231,0.169281780738842,-0.264827675015851,0.819768158140115,0.507785849985269,-0.0339307326368417,-0.534183017437004,0.84468764005674
489,9.141516,-0.235310668945313,-6.92280395507813,-0.321531372070313,0.965609557514192,0.198692443044543,0.167688686303633,-0.258254754065681,0.807517032931343,0.530302483049283,-0.030044374510415,-0.555371546446838,0.831059432867185
490,9.141516,-0.296383666992187,-8.3921484375,0.015567626953125,0.967198341046725,0.18950326189423,0.169162297241171,-0.252362850117843,0.79282223310761,0.554748500286987,-0.028988979921042,-0.579242108639996,0.814639931884896
491,9.141516,0.063468017578125,-8.8567822265625,-0.34727783203125,0.968679055026992,0.181123199790443,0.169868404506799,-0.246882920845089,0.77587327024908,0.580576861326728,-0.0266404156688948,-0.604330253264446,0.796288410842654
492,9.141516,-0.360450439453125,-7.67124755859375,-2.96862670898438,0.970125053679775,0.175557794919543,0.167442052262272,-0.241744084145162,0.757630680913508,0.606263597059358,-0.0204249358292892,-0.628629630212832,0.777436563338031
493,9.141516,-0.640667724609375,-7.68322265625,-4.2870849609375,0.971428994921639,0.170489436404003,0.165103179558059,-0.236903182551999,0.738304131128691,0.631493382431711,-0.014233408666557,-0.652564450482061,0.757599530124443
494,9.141516,-0.596958618164062,-7.21080505371094,-5.21755004882813,0.972343666637031,0.16452727747012,0.165766609783532,-0.233252161097634,0.72019267257435,0.653388049870442,-0.0118837407468965,-0.673983152117681,0.738651126965481
495,9.141516,0.468825073242188,-6.58929748535156,-6.466552734375,0.974453361685672,0.157101764041082,0.16049822938174,-0.224464034863547,0.705179196810578,0.672560924703751,-0.00751950478887488,-0.691405334171474,0.722427934763712
496,9.141516,-1.20768859863281,-5.58817932128906,-9.29686706542969,0.976493688397154,0.150164326386032,0.154631017592047,-0.215501938164838,0.694658496466843,0.686300581329802,-0.00435788569389733,-0.703491470003336,0.710690340770736
497,9.141516,-1.49089965820313,-4.97804809570313,-9.51122131347656,0.97762866371111,0.147032501970095,0.15041156622695,-0.210334825887095,0.687482807437501,0.695073126006823,-0.00120702505181657,-0.711160201953305,0.70302895406111
498,9.141516,-2.33334777832031,-4.86548217773437,-10.32732421875,0.97818223588744,0.145505449887675,0.14828242460668,-0.207748547491259,0.685911688736304,0.697399237359911,-0.000233258488506263,-0.712989003637432,0.701175175175633
499,9.141516,-1.54658386230469,-4.16134643554688,-10.3129541015625,0.978371676256051,0.143525590964928,0.148960625126552,-0.206807663991682,0.694040848529464,0.689592554112067,-0.00441057980636309,-0.705484022009478,0.708712100556427
500,9.141516,-2.56566467285156,-4.24098083496094,-10.5692211914062,0.978314468149179,0.148179382080573,0.144719287367679,-0.207103596514599,0.709888084905335,0.673176802348503,-0.0029835751553292,-0.688550490258817,0.725182267187799
501,9.141516,-1.76213562011719,-4.48766784667969,-8.01253784179688,0.976762967966429,0.158457570068689,0.144309746369887,-0.214294911425214,0.732858996478636,0.645751796139652,-0.00343443542294139,-0.661671285283149,0.749786179443895
502,9.141516,-1.68789001464844,-7.73890686035156,-3.27818298339844,0.975007086675256,0.159629207924837,0.154530569501052,-0.221501849278535,0.752465229538912,0.620268497588861,-0.0172659114795493,-0.638994987705101,0.769017096031381
503,9.141516,-1.17655334472656,-8.38496337890625,-0.0784368896484375,0.973997705945163,0.173205711879382,0.146041946665735,-0.22632397691504,0.773145425035076,0.592472454398256,-0.0102920496948552,-0.610119605585404,0.792242475883104
504,9.141516,-1.62262573242188,-11.3003009033203,3.44104431152344,0.972491902126102,0.182832783020914,0.144331818224478,-0.232787920404703,0.784965991244329,0.57414125152567,-0.00832372589712482,-0.591946421597965,0.805934333270741
505,9.141516,0.66821044921875,-6.11987365722656,-2.64050903320313,0.970538515171791,0.197714047300127,0.137710370228017,-0.240927558086514,0.803415080297259,0.544498044537735,-0.00298367602194699,-0.561634546881824,0.827380041713749
506,9.141516,-0.612526245117188,-10.4656365966797,7.50539245605469,0.967306286803624,0.210350686101602,0.141672638031385,-0.253525877776838,0.816509821093932,0.51868713243596,-0.00657090615293481,-0.537647004003315,0.843144425515931
507,9.141516,2.72792724609375,-6.1695703125,1.91481811523438,0.965548129078344,0.220362684313053,0.138409168033248,-0.260115677606905,0.832684218079196,0.488852561847576,-0.00752626709671295,-0.508013071017059,0.861316477828798
508,9.141516,1.12027038574219,-6.90065002441406,6.27375366210938,0.964529850938121,0.23248232473516,0.12503653600057,-0.263972683381725,0.848082826455003,0.459427841886346,0.000767513868288973,-0.476138097780286,0.879370185282986
509,9.141516,3.52007995605469,-5.9731787109375,6.30369140625,0.963562540697089,0.23709791829037,0.123821675435862,-0.267478864895487,0.85670849407751,0.441027905023783,-0.0015122829077094,-0.458077649878072,0.888910895243494
510,9.141516,-0.2826123046875,-2.82013549804688,3.23267761230469,0.963036796767611,0.243781310319582,0.114589706389568,-0.269369774051812,0.871190396803709,0.410447581725452,0.000229997511385985,-0.426143127664713,0.904655725591388
511,9.141516,2.89258483886719,-6.50607055664063,12.2343585205078,0.962548056124997,0.246997981840663,0.111773148012522,-0.271108293900451,0.878810672455044,0.39267301276953,-0.00123799368993439,-0.408269272595615,0.912860705927181
512,9.141516,0.447269897460938,-1.4609619140625,6.05820190429688,0.96227947560869,0.249445499989367,0.108605494139657,-0.272004474559067,0.890364146940515,0.365055135099803,-0.0056370774440521,-0.380826244339783,0.924629436574429
513,9.141516,0.449066162109375,-3.71108276367188,10.7530389404297,0.961668818087572,0.254042269871357,0.103226011434428,-0.274152966227842,0.89864529130623,0.342456992221821,-0.00576501747852253,-0.357629928182401,0.933845597002911
514,9.141516,0.846639404296875,-1.36276611328125,9.30405212402344,0.961073273916273,0.257026041068956,0.101369504172982,-0.276159342403568,0.905054404627218,0.323438622103332,-0.00861276767861648,-0.338842351068004,0.940803742209618
515,9.141516,0.563428344726563,-0.68258056640625,9.24776916503906,0.960315948646346,0.262212312125913,0.0950683025253496,-0.278811089395943,0.911754269011185,0.301609896007621,-0.00759310248291977,-0.3161468903998,0.948679866174686
516,9.141516,1.06638244628906,-0.0233514404296875,9.94531860351563,0.960369618947557,0.263954980375114,0.0895430809035419,-0.278645589285292,0.917076470524058,0.285179562351494,-0.00684328681099802,-0.298828572171924,0.954282271594371
517,9.141516,0.852028198242188,1.68010620117188,7.89338562011719,0.960099578341099,0.266674217230729,0.0842238774553977,-0.27952406125206,0.924416300672248,0.259462525680667,-0.00866595928899166,-0.272652461782054,0.962073560718611
518,9.141516,0.479602661132813,0.0784368896484375,11.726015625,0.959556110214945,0.27022868428858,0.0789210335514372,-0.281407104657977,0.928565450872112,0.242025298046889,-0.00788116724722115,-0.254445793115811,0.967054923760015
