// Start Time: Unknown
// Update Rate: 100.0Hz
// Filter Profile: human (46.1)
// Option Flags: AHS Disabled ICC Disabled 
// Firmware Version: 4.0.2
PacketCounter	SampleTimeFine	Acc_X	Acc_Y	Acc_Z	Mat[1][1]	Mat[2][1]	Mat[3][1]	Mat[1][2]	Mat[2][2]	Mat[3][2]	Mat[1][3]	Mat[2][3]	Mat[3][3]
1	9.141516	-2.22317687988281	1.49808471679688	8.82444946289062	0.580667352388618	0.813963723432566	0.0169847815937249	-0.77584580500977	0.559556900028601	-0.291477893637109	-0.246756383339391	0.156074125229573	0.956426763905678
2	9.141516	-2.36268676757813	1.89625671386719	8.30892150878906	0.579646430607766	0.814627153972972	0.0198145273366013	-0.77559449932237	0.559004486061023	-0.29320156408951	-0.249926365365	0.154585201664158	0.955845294659074
3	9.141516	-2.24113952636719	1.599873046875	8.77235778808594	0.578841956739724	0.815167320523347	0.0210767328709974	-0.775884900116204	0.558532251116577	-0.293333165929661	-0.250887645948133	0.153440424964993	0.955777916200812
4	9.141516	-2.09743835449219	1.71423522949219	8.37179077148438	0.57877036563975	0.815233351811725	0.0204803796608083	-0.776068395476274	0.558331955126351	-0.293229046016367	-0.250484948450227	0.153818106796979	0.955822829096105
5	9.141516	-2.30700256347656	1.5855029296875	8.86755981445313	0.579356423949458	0.814808821525674	0.0208018843482886	-0.775576348546174	0.558950061768427	-0.293353295575243	-0.250654067599712	0.153822666772536	0.955777759514577
6	9.141516	-2.20281921386719	1.61783569335938	8.48256042480469	0.579843255997156	0.814470107219835	0.0204998273145983	-0.775257086451398	0.559313801505478	-0.293503869399332	-0.250515964324644	0.1542936028836	0.95573805811409
7	9.141516	-2.28185485839844	1.80225219726563	8.18677551269531	0.579965091426319	0.814401060843358	0.0197839537018279	-0.775044335733703	0.559091591826805	-0.294487469335577	-0.250891949599752	0.155459010822094	0.955450535391682
8	9.141516	-2.15791259765625	1.64657592773438	8.52746704101563	0.580263006946017	0.814213073291747	0.0187593723449356	-0.774902308315792	0.559043187795962	-0.29495275341279	-0.250641687148855	0.156613490669667	0.955327671117841
9	9.141516	-2.222578125	1.85793640136719	8.727451171875	0.581100559768341	0.813662461788036	0.0165993287199579	-0.774926201859774	0.55943667565809	-0.294142801373432	-0.248619229159985	0.15806329177155	0.955617326489132
10	9.141516	-2.1986279296875	1.916015625	8.54602844238281	0.581712655257526	0.813258981703653	0.0148396560464164	-0.774818941525129	0.559584335463781	-0.294144487212387	-0.247519685211334	0.1596095240952	0.955645753012583
11	9.141516	-2.11779602050781	1.68010620117188	8.9046826171875	0.581805201660787	0.813196974877378	0.0146077845935911	-0.775018363849588	0.559758574051768	-0.293286335296138	-0.246676393309856	0.159314214136131	0.955913039014443
12	9.141516	-1.89026916503906	1.85314636230469	8.41789489746094	0.582750268609706	0.812538791977808	0.0135216850488115	-0.774520963225668	0.560367186000229	-0.293438058844057	-0.246006914454247	0.160528279083246	0.955882455982571
13	9.141516	-2.05792053222656	1.85015258789063	8.44903015136719	0.583037224258727	0.812338882793064	0.0131580633527833	-0.774367734597717	0.560538604994554	-0.293515048889761	-0.245809289374259	0.160941019672663	0.955863892739989
14	9.141516	-1.87110900878906	1.84536254882813	8.51309692382813	0.583842749792252	0.811775871222106	0.0121481857333997	-0.774040515584906	0.561092371948003	-0.293320013594055	-0.244926363930212	0.161849575357352	0.955937127225724
15	9.141516	-2.10881469726562	1.6813037109375	9.072333984375	0.584128108765374	0.811563308813403	0.0126233251573894	-0.773774124963527	0.561490568570558	-0.293260882054257	-0.245087649805363	0.161534322031429	0.955949113038309
16	9.141516	-1.9399658203125	1.983076171875	8.61129272460938	0.584298442924874	0.811468610928878	0.0106781586767419	-0.774095277429042	0.561241896018392	-0.292889118295193	-0.243663356000904	0.162868743566217	0.956086785449699
17	9.141516	-2.49441284179687	1.92499694824219	9.21184387207031	0.58408657568184	0.811638028159738	0.00930501763755101	-0.774734432728518	0.560875772013076	-0.291898830270964	-0.242135149974316	0.163285270657545	0.956403936385253
18	9.141516	-2.46148132324219	2.04235290527344	9.33159484863281	0.58278597559682	0.812575871419751	0.00899776828413967	-0.775837172391227	0.559662273879625	-0.291298508633108	-0.241737850953565	0.162783882440246	0.956589890723309
19	9.141516	-2.13695617675781	2.31059509277344	8.82684448242188	0.58133395771927	0.813627798278182	0.0077868781580568	-0.777268768997007	0.558134968650226	-0.290411118092418	-0.240632687605669	0.162773347446101	0.956870287456385
20	9.141516	-1.38132751464844	2.28005859375	9.91178833007813	0.580579443361496	0.814184314706007	0.00560460817236144	-0.779166620628854	0.557580226161672	-0.286362827006772	-0.236277140756077	0.161889447093409	0.958104858392819
21	9.141516	-1.43461669921875	2.37945190429688	9.60283081054687	0.581612416709712	0.813453901129871	0.00444381206643248	-0.77989063651741	0.559151595114314	-0.281282933633713	-0.231295464290932	0.160131959388847	0.959614591271272
22	9.141516	-1.59568176269531	2.28784240722656	8.43226501464844	0.58316903434054	0.812345540987129	0.00293247756205305	-0.780305698166852	0.56116477493565	-0.276074469626882	-0.225913467492897	0.158709852906969	0.961131774417839
23	9.141516	-1.57532409667969	1.71363647460938	9.07413024902344	0.585535696944321	0.810638588452044	0.00360922656611637	-0.780118523420602	0.564689783436474	-0.269333506824769	-0.220370227163263	0.15488875812965	0.963040204552783
24	9.141516	-1.69806884765625	1.57412658691406	7.87242919921875	0.587029640651045	0.809552033191236	0.00465902919518155	-0.780099803687295	0.567192757411863	-0.26407701949729	-0.21642665566919	0.151386530099158	0.964490342730495
25	9.141516	-0.791553955078125	1.51065856933594	6.91561889648438	0.5883469068114	0.808598527831525	0.00404203341752085	-0.780339297766605	0.569081126878515	-0.259262900145395	-0.211939844311022	0.149382367832919	0.965798328106883
26	9.141516	-1.09153015136719	1.17475708007813	9.36153259277344	0.591327397415609	0.806430293085378	0.00144618806350146	-0.779905831643236	0.572332253960611	-0.253343018149778	-0.205131184451695	0.148680777071546	0.967375430582588
27	9.141516	-1.07177124023438	0.633482666015625	9.41542053222656	0.593882393768871	0.80453670382897	0.00493908527684148	-0.778456157577486	0.576159772248964	-0.249090199670156	-0.20324791044695	0.14408542269792	0.968467695829298
28	9.141516	-0.573008422851563	0.768202514648438	6.44200378417969	0.595605659076095	0.803251158203606	0.00644016467926292	-0.777156405206317	0.578247420254111	-0.2483099732517	-0.20317928221973	0.142889810042674	0.968659218436827
29	9.141516	-0.883163452148438	0.659827880859375	7.55748413085938	0.597499015847568	0.801865758109961	0.00249640379854596	-0.776911366014331	0.579669672529136	-0.24574743153838	-0.198503540066503	0.144894364005998	0.969330680346168
30	9.141516	-1.34899475097656	0.149089965820313	9.04059997558594	0.599900287294328	0.800061124488391	0.00467358390908333	-0.774439000388876	0.582135390003679	-0.247714800490289	-0.200907640424307	0.144984774330397	0.968821725206192
31	9.141516	-0.925675048828125	0.607137451171875	8.2340771484375	0.601811048648612	0.798633635050662	0.00278903033766045	-0.773515198805019	0.583744958952745	-0.24681179087493	-0.198740280119785	0.146376705329175	0.96905942087928
32	9.141516	-0.889749755859375	0.53887939453125	11.4428045654297	0.602763843740556	0.797919597204688	0.000255099625978791	-0.773792676001483	0.584615866873903	-0.24386304099994	-0.194732234736763	0.146794429717152	0.969809647383672
33	9.141516	-0.584384765625	0.64905029296875	12.3840472412109	0.604059022513414	0.79693864119087	0.00122453950077832	-0.773884844408314	0.586950367093603	-0.237889710083906	-0.190302246217061	0.142751773178252	0.971291401351421
34	9.141516	-0.367036743164063	1.03883972167969	15.6292987060547	0.60503769985971	0.796192479282402	0.00263014878176397	-0.775172999627236	0.589812387490579	-0.226336404963004	-0.181758637751788	0.134903237532706	0.974045642722049
35	9.141516	-0.771795043945313	0.352666625976563	16.5088696289063	0.606597317141934	0.794924207032548	0.0116275496078856	-0.775584011030837	0.594925796095562	-0.211027815639032	-0.17466864821578	0.118990765245615	0.977410896765907
36	9.141516	1.41485778808594	0.9340576171875	11.7326019287109	0.610582749615059	0.791825842551012	0.0141612478579524	-0.776203651997675	0.601893296129447	-0.187702825497917	-0.157151508099623	0.103616094998847	0.982123774459821
37	9.141516	-0.111368408203125	-1.48850463867187	12.5055944824219	0.612643547936878	0.790000173237057	0.0238245557510659	-0.777185073443334	0.607638671183205	-0.163580582281603	-0.143705409738793	0.0817004991914345	0.986242254034817
38	9.141516	1.56035522460938	-1.38312377929688	10.40396484375	0.613787142410417	0.788530035557722	0.0385451272535468	-0.778108560250262	0.612485206418605	-0.139315973181914	-0.133463149509213	0.0555180595995329	0.989497515298237
39	9.141516	2.74109985351563	-2.136357421875	8.64302673339844	0.617315759543338	0.785572817137158	0.0423863420764406	-0.779376303577748	0.618010777190634	-0.10312738093113	-0.107209283370974	0.0306272468794974	0.993764630738922
40	9.141516	1.30049560546875	-3.08478515625	9.46092590332031	0.619858323832961	0.783101770874981	0.0502720083889873	-0.780279325180391	0.62189046179107	-0.0664562128722682	-0.0833056604981098	0.00196722793806858	0.996522100579417
41	9.141516	2.23155944824219	-3.16202453613281	8.22988586425781	0.62378210866718	0.778165873218116	0.0731693560543819	-0.777698692995926	0.62728397803789	-0.0412256450451421	-0.0779783548117965	-0.0311878927734229	0.996467105089375
42	9.141516	3.84400634765625	-3.90687561035156	5.63907348632813	0.630329534541919	0.771293554929497	0.0882662450112527	-0.773742291879138	0.633427930856541	-0.00958760493657986	-0.0633051628367486	-0.062251976153526	0.996050775725411
43	9.141516	3.74281677246094	-4.69004699707031	5.53309387207031	0.640460681487265	0.762045140714519	0.0953798667552964	-0.76711649052726	0.640703567087327	0.0321127557633315	-0.0366388513740334	-0.0937344260928981	0.994922837176345
44	9.141516	2.86384460449219	-5.69954772949219	4.4834765625	0.652102694899353	0.749529279431138	0.113876839526045	-0.757663937001607	0.6495771384672	0.0632052193097153	-0.0265976290715188	-0.127496668412173	0.991482307291245
45	9.141516	2.56147338867188	-5.84085388183594	2.47405517578125	0.661572115583106	0.738294640950791	0.131313971176857	-0.749636819639215	0.655610623222628	0.0906606273905093	-0.0191565791334478	-0.158416330790045	0.987186553603179
46	9.141516	4.358935546875	-7.17128723144531	0.455652465820313	0.67003672438918	0.72755934662518	0.147336978074612	-0.742290281853755	0.658672543003486	0.123108157970114	-0.00747833104988825	-0.191853793894365	0.981395025630886
47	9.141516	6.7012646484375	-7.67963012695313	2.62853393554688	0.683060349015265	0.711965351717972	0.162892288203734	-0.730356537583426	0.664992663468252	0.156089991807772	0.00280848932603708	-0.225588331893527	0.974218669961319
48	9.141516	1.82260986328125	-5.93785217285156	-2.80037658691406	0.688661616362496	0.702074656092958	0.181208044581223	-0.724882947823019	0.660756860025785	0.194794979104382	0.0170261594144423	-0.265502446694604	0.963959833548459
49	9.141516	2.63691650390625	-6.35338806152344	-4.70681213378906	0.691600412636905	0.696106927880628	0.192675930507829	-0.721541980840317	0.65379864933194	0.227869471445305	0.0326502546007807	-0.296618393037796	0.954437787279077
50	9.141516	3.59851684570313	-6.63779663085938	-4.02423156738281	0.70012902627077	0.684769071770459	0.202263849760079	-0.712824822597843	0.653971673223224	0.253380786386755	0.0412324976383572	-0.321577936071866	0.945984942887709
51	9.141516	2.66865051269531	-5.57859924316406	-6.274951171875	0.706498232133565	0.675983475162247	0.209538992313411	-0.706016380869232	0.652701905584603	0.274811012134778	0.049001203418481	-0.342091455248157	0.938388149067186
52	9.141516	2.1507275390625	-4.07213195800781	-8.75858642578125	0.712637095752057	0.668418940379747	0.212989412646945	-0.699659018481616	0.655009596157578	0.285376394957307	0.0512408783630401	-0.352389768698104	0.934449476056079
53	9.141516	3.1183154296875	-4.10566223144531	-10.7045397949219	0.721045441010733	0.658519505538698	0.21551225678069	-0.691259784591828	0.662361361774116	0.288855217426999	0.0474698030720298	-0.35725269383702	0.932800691757084
54	9.141516	3.38835388183594	-4.27451110839844	-11.2326416015625	0.725513517704563	0.660177277393167	0.194412185939298	-0.684626155884133	0.663557946368368	0.301625394306761	0.0701224807552119	-0.351932968369177	0.933394891494267
55	9.141516	-0.0413140869140625	-2.75247619628906	-11.6421899414063	0.730919082957499	0.65111106290249	0.20447904033069	-0.68132125125321	0.678839578837423	0.273821435966197	0.0394797005982705	-0.339457228483679	0.939792606520636
56	9.141516	1.80764099121094	-4.85350708007813	-7.79698608398438	0.737828440921646	0.63833217795687	0.219411080741089	-0.674954652029246	0.700970124048752	0.230384684593307	-0.00673865500039997	-0.318076902298667	0.948040966811493
57	9.141516	5.98635131835938	-3.28836181640625	-12.4020098876953	0.750408588103644	0.628103798443213	0.205845984370606	-0.66088678276575	0.718062285099614	0.218209108616156	-0.0107522679390216	-0.299786879463943	0.95394560412816
58	9.141516	4.53437072753906	-3.2907568359375	-2.94228149414063	0.760229836361129	0.61511183283783	0.20901681513509	-0.648773204658409	0.735581985332218	0.194967873691977	-0.0338219577137197	-0.283824903695215	0.958279447352813
59	9.141516	2.4381298828125	-4.9481103515625	-1.16757202148438	0.776271801136311	0.592520087305215	0.21522554890256	-0.625881567015761	0.765197175418754	0.150816268356752	-0.0753283136044005	-0.251780120086915	0.964848390317637
60	9.141516	-2.8740234375	-6.52762573242188	-0.4454736328125	0.784307650705322	0.58182220819472	0.215277558274241	-0.612037236854104	0.782380093659381	0.115290111239136	-0.101350529101194	-0.222180798218387	0.969723549860448
61	9.141516	0.686771850585937	-7.32337097167969	2.19503540039062	0.791925450709654	0.571309703968408	0.215544201197439	-0.597342320926251	0.798043211852101	0.0794303698041407	-0.126634245560795	-0.191656604812652	0.973258194767933
62	9.141516	-2.69020568847656	-4.62837524414063	2.38903198242188	0.805075783190668	0.554219304909298	0.211409425962487	-0.574375531372195	0.817381636284035	0.0444972990926749	-0.148140920345602	-0.157252099291199	0.976384168751045
63	9.141516	-6.22645202636719	-2.2608984375	5.35466491699219	0.815262283277877	0.540934362752904	0.20673031867061	-0.555235309942433	0.831580479865012	0.0136987627400001	-0.164502766109487	-0.125952057151068	0.978302059305684
64	9.141516	-4.99960327148438	0.21315673828125	6.447392578125	0.82779149102368	0.521758529303414	0.206226294365999	-0.52923321562507	0.848200594517634	-0.021632266156859	-0.186208084861911	-0.0912347990575525	0.978265179065977
65	9.141516	-7.46527587890625	1.10829528808594	3.63025085449219	0.839029215808832	0.502896057299136	0.207666874036763	-0.501828885752452	0.86275816014015	-0.0617748050262834	-0.210232596054155	-0.0523823697876176	0.976247070618788
66	9.141516	-8.01134033203125	3.27219543457031	5.06247253417969	0.850974451684822	0.484707000782584	0.202241454632992	-0.475080279721841	0.874572669950083	-0.0970637563450048	-0.223922331175643	-0.013482150004234	0.974513735784227
67	9.141516	-9.21064636230469	7.46527587890625	3.975732421875	0.85901029528628	0.47030488815186	0.202273638353213	-0.452703030662572	0.882296192269585	-0.128892959992059	-0.239084250048183	0.0191504905174562	0.970809960853225
68	9.141516	-12.1289776611328	7.24673034667969	7.4485107421875	0.863708425411083	0.461567651625704	0.202393327080317	-0.435601029898706	0.88565114504432	-0.160853324593779	-0.25349457316695	0.0507676299862189	0.966003700365836
69	9.141516	-8.2053369140625	6.1743603515625	6.22585327148438	0.870880260429244	0.452290461860991	0.192356206305554	-0.421693420504751	0.888636557407635	-0.180276809217686	-0.252472238271253	0.075884167968545	0.964623948465943
70	9.141516	-9.79383361816406	8.41250610351562	3.68892883300781	0.876547635172328	0.443570514186847	0.186840686730209	-0.406699042974592	0.890183452567064	-0.205351672063642	-0.257410434359897	0.104012594044178	0.960687903828736
71	9.141516	-8.64422424316406	8.70170471191406	5.77918212890625	0.882749492947936	0.438048551386733	0.169902322903917	-0.396793835248987	0.888703811199666	-0.229695860362323	-0.251610780787632	0.135347709944323	0.958317803447408
72	9.141516	-8.7130810546875	8.81127685546875	8.9286328125	0.885628122868578	0.433319104176173	0.167025093744139	-0.387065071043275	0.887489693345265	-0.250085335404126	-0.256599802732863	0.15683302637483	0.953708521024935
73	9.141516	-7.60358825683594	8.535849609375	7.08327026367188	0.887306744578437	0.434901430284509	0.153451904393873	-0.385600649357357	0.882142776402508	-0.270437166928031	-0.252979999685355	0.180789568220526	0.950429509107243
74	9.141516	-8.03109924316406	7.82931884765625	10.3231329345703	0.885895887026016	0.44118759334408	0.143324753024898	-0.391840405603214	0.877072713589905	-0.27785707047464	-0.248293322276493	0.189992006556325	0.949870235115094
75	9.141516	-7.36947509765625	7.51497253417969	9.38488403320313	0.884110780547823	0.446300779704647	0.138433167102915	-0.397237690266013	0.873861412596056	-0.280300640398392	-0.246069797316213	0.192825946414506	0.949877786474717
76	9.141516	-8.39633972167969	8.79990051269531	10.8608148193359	0.882440442458552	0.45154476749817	0.131932514789112	-0.404555961394463	0.871549367614017	-0.277012948996631	-0.240069447480844	0.191073343919637	0.951765537109645
77	9.141516	-9.36931640625	10.7889642333984	11.6978741455078	0.880241877837082	0.457368627889946	0.126444354258765	-0.412680202886703	0.869378168750578	-0.271802593521992	-0.234241940410416	0.187070943553402	0.954010049963208
78	9.141516	-8.7322412109375	10.9200915527344	9.19867126464844	0.876511074155383	0.463364318461171	0.130467793956943	-0.420599004371937	0.869001987857618	-0.260637722942871	-0.234146993156676	0.173577226261176	0.956580436826493
79	9.141516	-7.12877563476563	10.5488635253906	8.69930969238281	0.873821322704694	0.468303222251155	0.13087546758581	-0.427977938028087	0.868483661948517	-0.250141986659022	-0.230805503720874	0.16256758889053	0.959322989662227
80	9.141516	-7.68921020507813	9.61061462402344	8.61069396972656	0.871816840147342	0.47264558418381	0.128613953313974	-0.436456348343642	0.868751272614414	-0.234045043359971	-0.222353891861684	0.14791003374478	0.963681155098293
81	9.141516	-5.49537231445313	8.68613708496094	7.61256958007813	0.868184982863535	0.476795800643551	0.137552171989099	-0.442938325094362	0.86954299183442	-0.218404728690216	-0.223741984644913	0.128688576961287	0.966115300813953
82	9.141516	-4.6511279296875	6.83957702636719	5.65823364257812	0.864961003198765	0.479526475127895	0.147975750029535	-0.449641434823788	0.871480947687062	-0.195815060473054	-0.222856552596042	0.102836362585793	0.969412007092511
83	9.141516	-4.18529663085938	6.31566650390625	4.78285400390625	0.858625853092479	0.485230538015331	0.165266358883365	-0.459888555397503	0.871599749539374	-0.169753919593329	-0.226415902744507	0.0697509969839381	0.97153004966606
84	9.141516	-3.63025085449219	5.23311767578125	4.44395874023438	0.852950122707064	0.488646715109803	0.183576893933857	-0.468896267539331	0.871781520955896	-0.141891754543765	-0.229373883564995	0.0349480690771755	0.972710776133425
85	9.141516	-5.26724670410156	4.06913818359375	5.84145263671875	0.843354421773892	0.498940088620997	0.199529715183718	-0.485303675967518	0.866636038904122	-0.115854728712246	-0.230724210621334	0.000874093499476973	0.973018794573731
86	9.141516	-4.75770629882813	2.40280334472656	6.67072814941406	0.834626328660135	0.505662231040609	0.218413826499924	-0.499722222910474	0.86191760209219	-0.085882170053297	-0.231682091316353	-0.037466722603976	0.972069777979235
87	9.141516	-2.95725036621094	0.689765625	3.76197692871094	0.825700082453875	0.511980707810008	0.236844102029221	-0.515019775326612	0.855488414376806	-0.053797805620537	-0.230160823899704	-0.0775585436778076	0.970057043397133
88	9.141516	-3.16262329101563	-0.573008422851563	3.7122802734375	0.820670581046142	0.513145575712258	0.251359136560266	-0.525234806659858	0.850678319382395	-0.0217897867297078	-0.22500710050656	-0.114140330557079	0.967648587898495
89	9.141516	-2.87222717285156	-1.38492004394531	2.52734436035156	0.813918337966211	0.513096587027355	0.272523084349202	-0.53483096589628	0.844933942860566	0.00651691035305187	-0.22692019971958	-0.151058017274748	0.962127173702234
90	9.141516	-1.04003723144531	-1.50706604003906	1.67950744628906	0.807611737444942	0.511570551581472	0.29335789114287	-0.544274046937287	0.83809681810409	0.0368711989811749	-0.227000095532295	-0.189444699684183	0.955291401819309
91	9.141516	0.762813720703125	-1.74716674804688	-0.638272705078125	0.801029474419032	0.50754009971756	0.317419010600592	-0.553342546392268	0.830079690336905	0.0691356206474537	-0.228393974228942	-0.231021113469909	0.945761829250384
92	9.141516	0.568817138671875	-2.94228149414063	-2.46267883300781	0.796527446050759	0.500016983917521	0.339892694069584	-0.559316321058181	0.822875534927261	0.100205324290263	-0.229585018426282	-0.269923822239165	0.935110608164619
93	9.141516	-0.0832269287109375	-4.32241149902344	-3.45421691894531	0.79253367288777	0.490082824687089	0.362917624655715	-0.564140402981138	0.815202227242612	0.13111420374225	-0.231594436598336	-0.308648916481833	0.922550737515986
94	9.141516	-2.02319274902344	-5.50255737304688	-6.03784423828125	0.789469250224022	0.480983413981325	0.381304679260026	-0.568945723388515	0.80654465693472	0.16058169325292	-0.23030212067769	-0.343715975545108	0.910395661987926
95	9.141516	-2.7063720703125	-5.9444384765625	-5.21036499023438	0.783564371867373	0.473912616186515	0.401788137404954	-0.577492889446255	0.794072483299228	0.189607104049434	-0.229191705301707	-0.380599163801302	0.895888072660109
96	9.141516	1.34001342773438	-6.29530883789063	-14.1874969482422	0.781650749549863	0.468531279872466	0.411704439506311	-0.584232120057661	0.781125000786805	0.22026475668782	-0.218391702271556	-0.412701069694376	0.884297965310364
97	9.141516	1.38132751464844	-5.08881774902344	-16.8914739990234	0.780597324553511	0.466321654376533	0.416187375540673	-0.58812376078517	0.773423024530152	0.236489465149169	-0.211608740130952	-0.429372728274822	0.87798678880381
98	9.141516	1.34360595703125	-5.01756591796875	-18.039287109375	0.780328859194905	0.465512504921103	0.417594275906242	-0.589689764775841	0.770046917511264	0.243503031089995	-0.208213478973365	-0.436263512791847	0.875397792195255
99	9.141516	1.92320068359375	-3.72784790039063	-18.9422094726563	0.780042942840744	0.471024402513414	0.411908994270862	-0.592753432553048	0.767118603831028	0.245300664191749	-0.200440453803444	-0.435505522230448	0.877586784646313
100	9.141516	4.24157958984375	-3.69551513671875	-19.3505603027344	0.780159851460372	0.476889848862542	0.404878596891948	-0.592900431457893	0.770106869114238	0.23538158067298	-0.19954870219166	-0.423687953799642	0.883554657765267
101	9.141516	1.65974853515625	-3.70389770507813	-15.7957525634766	0.782739085928675	0.485376673455428	0.389524079133607	-0.590665055339613	0.776548334339222	0.219288569778802	-0.196046718310188	-0.40172399642083	0.894529773087225
102	9.141516	1.55376892089844	-3.38955139160156	-13.4067205810547	0.78562523750418	0.495689494287019	0.370249796016122	-0.587423810912219	0.785470873741353	0.194855774554827	-0.194232470431353	-0.370577160328959	0.908265553498898
103	9.141516	0.211959228515625	-3.11951293945313	-7.84428771972656	0.788308871558004	0.504597153641832	0.352066521497724	-0.582528888840373	0.796285236147017	0.163064147993022	-0.198063668271965	-0.333633834061911	0.921661135168345
104	9.141516	0.0592767333984375	-2.17108520507813	-4.97565307617188	0.793128397254202	0.512156722820928	0.329610128391571	-0.575659109157156	0.807117031566978	0.131067491770082	-0.198906851348491	-0.293696422558801	0.93497512045123
105	9.141516	-0.188009033203125	-1.120869140625	-2.19024536132813	0.798279812309015	0.516765455375491	0.309358700201639	-0.566857254905189	0.818206731350613	0.0959718569889089	-0.203524430526752	-0.251974619561392	0.94609016339652
106	9.141516	-1.78428955078125	1.58729919433594	0.45984375	0.803370672162685	0.52136068797631	0.287712697220238	-0.558265179066582	0.827544822694864	0.059241508021689	-0.207208959629241	-0.208212870552701	0.955882758284494
107	9.141516	-1.43761047363281	3.35242858886719	0.553848266601562	0.810831859665872	0.525496947740301	0.257691003464249	-0.549683443751507	0.83493839487094	0.0269441725763356	-0.200997032356869	-0.163495671765238	0.965851623334437
108	9.141516	-3.98351623535156	4.18529663085938	3.52007995605469	0.814838330613752	0.532809717457816	0.228368780583332	-0.545932121905945	0.837802174107116	-0.00675539285777976	-0.194927199830777	-0.119169299922059	0.973551264557866
109	9.141516	-3.51888244628906	5.01337463378906	6.60486511230469	0.815209349299578	0.54040094735109	0.208327945596847	-0.543400817441122	0.838117901971573	-0.0476857840355928	-0.200372823553691	-0.0743316789586604	0.976895866039113
110	9.141516	-4.17032775878906	5.57800048828125	8.31011901855469	0.812861389256281	0.551482879669087	0.187411299788035	-0.545526382182279	0.833584903024501	-0.0868169096014548	-0.204101269470486	-0.0316676946038697	0.9784374425169
111	9.141516	-1.71782775878906	6.55337219238281	7.63113098144531	0.810212704797038	0.563383297679474	0.161723940346719	-0.550378785918798	0.826149246922581	-0.120667368496221	-0.2015900915125	0.00875680906803317	0.979430831298938
112	9.141516	-2.22916442871094	7.82093627929688	6.7491650390625	0.808002499311097	0.571898259330747	0.141648657182069	-0.551283692616765	0.818688371418369	-0.16073469059031	-0.207889998224652	0.051785436937429	0.976780434467928
113	9.141516	-3.82304992675781	10.375224609375	7.21080505371094	0.802519750878601	0.586126531711148	0.111434905994522	-0.5612204837835	0.804995723683314	-0.192388807973313	-0.202468807552082	0.0918562663939596	0.974971183313948
114	9.141516	-2.49800537109375	11.4631622314453	10.7482489013672	0.795729254012453	0.599185732804343	0.0882689748014987	-0.570067946491171	0.79020007169634	-0.224958625250154	-0.204542148937878	0.128686845850001	0.970361893838095
115	9.141516	-1.80165344238281	11.3727502441406	11.5517779541016	0.790303300814525	0.607492594830143	0.0798338270923193	-0.574424830357026	0.779936679012211	-0.248465069981084	-0.213206020062681	0.150504232358905	0.965345362578124
116	9.141516	-2.41298217773438	11.1230694580078	10.8859625244141	0.786544477211733	0.612907865771234	0.0754435778809053	-0.575428786445801	0.771764473423482	-0.270668264284694	-0.224119381351176	0.169480221964473	0.959711913683288
117	9.141516	-3.73982299804688	11.6445849609375	13.0199249267578	0.784063510065443	0.617159715667236	0.0660174033221064	-0.576822133680686	0.763799045714669	-0.289632946781651	-0.229173816741613	0.189010325439903	0.954858344780619
118	9.141516	-3.7601806640625	11.9756964111328	14.1773181152344	0.781590757309717	0.621266503168054	0.0560697791092714	-0.579048354644104	0.756020648280345	-0.30518155638525	-0.231988989117976	0.206059970433624	0.950642097486175
119	9.141516	-2.85905456542969	12.7241400146484	17.0489465332031	0.778416215582199	0.626691120937309	0.0364202451533223	-0.586428507410677	0.74665506813175	-0.314018813018039	-0.223986162552007	0.223079466046322	0.948717951139175
120	9.141516	-1.83638122558594	14.5862677001953	19.6194012451172	0.777606641125567	0.627953285530956	0.0316635889989063	-0.589232359515846	0.745379447100493	-0.311792729773409	-0.2193926575271	0.223794886069907	0.949622404322979
121	9.141516	-3.14585815429688	13.8641693115234	14.1677380371094	0.777032579536494	0.628075157924753	0.0417368702307494	-0.588077237177768	0.747994736392075	-0.30768333956052	-0.224467221331369	0.214535475685368	0.950572983110833
122	9.141516	-3.94579467773438	12.6600732421875	11.9218084716797	0.776676157375757	0.627312044440676	0.0570416116855801	-0.586816733060146	0.753496177270691	-0.29646185697164	-0.228954729946003	0.196781883663397	0.953339720087881
123	9.141516	-4.92296264648438	11.2763507080078	7.60777954101563	0.777600259255462	0.624303126000326	0.0747224442323786	-0.58289381452599	0.76032586019472	-0.286599698720183	-0.235738494508597	0.179304749478035	0.955132016540876
124	9.141516	-7.4964111328125	10.2878063964844	6.26776611328125	0.772698986440059	0.62757682352047	0.0953079584004479	-0.584921872460812	0.762269926540179	-0.277147906738204	-0.246581993404713	0.158404197142587	0.956088610357937
125	9.141516	-6.42763366699219	9.85191284179688	6.94675415039063	0.769644001206954	0.627362793167351	0.118591893295495	-0.586881337616321	0.768288100939139	-0.255545865771704	-0.251432708619678	0.127079973656717	0.959495843311257
126	9.141516	-6.7874853515625	9.59863952636719	3.08358764648438	0.761928246508922	0.630530841222939	0.147973664679	-0.593486091078234	0.771202223040972	-0.230263741985887	-0.259306010089467	0.0876241373330283	0.961812041767062
127	9.141516	-5.08103393554688	8.43406127929688	2.49980163574219	0.751275603208437	0.636221159182851	0.175520952116349	-0.604862099404643	0.770132652324626	-0.202577240891578	-0.264058343416011	0.0460253672605246	0.963407938954692
128	9.141516	-2.23814575195312	6.20489685058594	3.16262329101563	0.745437866710161	0.63658331594394	0.197696911297122	-0.613828971953831	0.771195211332524	-0.16873630080065	-0.259877625171363	0.00443033628544078	0.965631395541638
129	9.141516	-1.69687133789063	5.0343310546875	1.96810729980469	0.74303062259151	0.631228273791203	0.222387859960592	-0.617374388353106	0.774762058488086	-0.136354748112897	-0.258368648440367	-0.0359808156366924	0.965376104121713
130	9.141516	-1.76393188476563	2.43453735351562	1.71363647460938	0.736879536711505	0.626527921591932	0.253912015945548	-0.621928858803973	0.775500455688718	-0.108644087797631	-0.264977438591714	-0.0778576052308681	0.961106211791958
131	9.141516	-5.90492065429688	0.952020263671875	0.649649047851563	0.72765006499982	0.624900042584495	0.282887468233667	-0.631864374800009	0.771130569773331	-0.0781348591836704	-0.266969651391972	-0.121891677890474	0.955965283939064
132	9.141516	-3.9805224609375	0.0712518310546875	1.72740783691406	0.720297443086082	0.623491660786149	0.304022601814047	-0.644041486096051	0.763904809977333	-0.0407431648339276	-0.257647351375564	-0.166455970825994	0.951793177169039
133	9.141516	-4.41222473144531	-0.544866943359375	-2.13815368652344	0.711290584756266	0.620724666204317	0.329797805939684	-0.655716714208847	0.754976799874746	-0.00675443247367764	-0.253182334976678	-0.211449569440158	0.9440274280122
134	9.141516	-1.02446960449219	-0.544268188476563	-6.44320129394531	0.702070674655447	0.617076225478533	0.35540638674342	-0.667417137680291	0.744220920086716	0.0262599778356675	-0.248296460142899	-0.255640673709112	0.934342931597418
135	9.141516	-0.70892578125	0.31853759765625	-11.9571350097656	0.697805577698019	0.611673858047623	0.372723043444688	-0.677759475243866	0.732198936999822	0.067281575289894	-0.231753035472448	-0.299566032849966	0.925500255273784
136	9.141516	3.78592712402344	-0.9053173828125	-19.62	0.693847470512258	0.608763961441499	0.384684451094393	-0.685415263931782	0.722123423845552	0.0935076291160393	-0.220865578198747	-0.328548626513078	0.91829962233647
137	9.141516	2.462080078125	-1.62921203613281	-19.62	0.69575219722622	0.612342722488184	0.375453419575114	-0.689407570731744	0.716007715746205	0.10977318620527	-0.201608733621941	-0.335215365411045	0.92031765022719
138	9.141516	3.12430297851563	-3.78293334960938	-17.8644506835938	0.695302500701625	0.614017180484683	0.373546964366874	-0.691509932395743	0.713176742166468	0.114860558203667	-0.195878650996229	-0.338174269426967	0.920472551237371
139	9.141516	1.91242309570313	-3.64222595214844	-19.62	0.698222611922442	0.615985218687691	0.364756623734897	-0.690705893536138	0.713596817576618	0.117068145022331	-0.188176918974271	-0.333679175710444	0.923714054706623
140	9.141516	1.45677062988281	-4.11224853515625	-19.62	0.703077364187942	0.624586942805767	0.339960837219647	-0.68865205847394	0.717228924902195	0.106494185959831	-0.177314867752658	-0.308988381917812	0.934390505898722
141	9.141516	-1.5855029296875	-5.087021484375	-15.9466387939453	0.705223392442239	0.633093636037296	0.319143251160568	-0.685690390588565	0.723483491825716	0.0800020331627335	-0.180246095676888	-0.275252765771293	0.944323705054836
142	9.141516	-3.54642517089844	-3.85238891601563	-13.0217211914063	0.704948486599334	0.646255676134502	0.292234892347315	-0.68632751258829	0.725484674591543	0.0512497063130427	-0.178891522173856	-0.236697249660279	0.954972374101775
143	9.141516	-2.99197814941406	-1.49568969726563	-8.28856384277344	0.70500552983518	0.65766318979992	0.265417278420248	-0.685961391530063	0.727369833260602	0.0197508225799282	-0.180067132569931	-0.195990444778919	0.96393131151727
144	9.141516	-5.81869995117188	1.88907165527344	-4.50024169921875	0.702337347161892	0.672418643446243	0.233613823922108	-0.689808012273437	0.723925225746041	-0.00985767375774861	-0.175747423835929	-0.154225275083101	0.972279490445302
145	9.141516	-1.3172607421875	1.82021484375	-4.27451110839844	0.695136910072777	0.689668865562697	0.202833754902717	-0.697921362377193	0.715082319950073	-0.0395353972078786	-0.172309164561948	-0.114079496704202	0.978414748580417
146	9.141516	-2.12258605957031	5.29478942871094	0.736468505859375	0.687682098892277	0.705160216063964	0.17274953124028	-0.705006019067538	0.705428607114997	-0.0730547284050549	-0.173377749269202	-0.0715510303518995	0.982252821891557
147	9.141516	-2.67942810058594	5.68637512207031	4.21942565917969	0.6783698745604	0.720713836895079	0.14277912521402	-0.713417032956624	0.692599764388649	-0.106497434035548	-0.175642962786088	-0.0296164089106294	0.984008342417362
148	9.141516	-1.10350524902344	6.48631164550781	2.72912475585938	0.675034904390224	0.727899360545978	0.120376072255399	-0.712715290904968	0.685530141186778	-0.148611371148652	-0.190695547837719	0.0145239953591262	0.981541777813701
149	9.141516	-6.12765747070313	8.87773864746094	3.73084167480469	0.669959128248468	0.735280723357041	0.102552544269266	-0.710676892213227	0.675132449999903	-0.197824492495946	-0.214693086406392	0.0596526010889379	0.974858167033862
150	9.141516	-7.22038513183594	9.60103454589844	3.75299560546875	0.661601164463493	0.745393522167591	0.0816847371982214	-0.711760448763613	0.658532024057027	-0.244402612234764	-0.235968139282342	0.103557087647095	0.966227181796125
151	9.141516	-10.6662194824219	13.4324670410156	3.38296508789062	0.647434472670174	0.76053606466362	0.0491273645158051	-0.721641649314876	0.632500327209404	-0.281383485752279	-0.245075363046553	0.146725016360444	0.958337015877833
152	9.141516	-4.0667431640625	14.7533203125	5.34987487792969	0.631342477781162	0.775238521037676	0.0202955967751511	-0.731907511451751	0.604297308921616	-0.31485894796019	-0.256355359666318	0.183929328627627	0.948921457045283
153	9.141516	-1.42443786621094	16.7525628662109	11.1577972412109	0.622488905718336	0.78257430630963	-0.00922048597369735	-0.736125991854207	0.581460304570001	-0.346442546933864	-0.265755689260361	0.2224440813179	0.938025876142224
154	9.141516	-5.11157043457031	18.0955700683594	10.7769891357422	0.620589300606328	0.783516213984944	-0.0311650829559186	-0.732471278351429	0.565054472486825	-0.379735789086123	-0.279919178269679	0.258487495916799	0.924569882751699
155	9.141516	-3.94878845214844	16.2927191162109	13.1953601074219	0.615916777642585	0.785841427196812	-0.0556756169220591	-0.733348769515134	0.54608404939661	-0.404959001931357	-0.287829993692482	0.290250688708707	0.912638171695173
156	9.141516	-3.36500244140625	15.0263525390625	11.6284185791016	0.615255121893011	0.785171111775604	-0.0704802115311661	-0.72959068336565	0.53326919012727	-0.428160490478804	-0.298594323004407	0.314849640454087	0.900950128572871
157	9.141516	-2.03756286621094	14.5683050537109	10.6273004150391	0.619896678800445	0.779703603720672	-0.0882632310601433	-0.725230569255656	0.526344138017628	-0.443849602671443	-0.299614300441911	0.339152087889016	0.89174387144024
158	9.141516	-3.66318237304688	13.5659893798828	7.93769348144531	0.626957638360214	0.772345270071595	-0.102014231849373	-0.718509370509192	0.52264273821055	-0.458899610684366	-0.301111946279564	0.361008797668164	0.882612170669496
159	9.141516	-2.59919494628906	15.8771832275391	12.9558581542969	0.633292389230688	0.766177104218899	-0.109148498446975	-0.714818008036617	0.525036144325303	-0.461922355530216	-0.296607425950618	0.370553224412852	0.880178585713256
160	9.141516	-1.21427490234375	13.7851336669922	12.0553308105469	0.639979071039677	0.762258655036729	-0.0968944345810849	-0.709465527347378	0.537754207344318	-0.455498713487965	-0.29510244685007	0.360252904644892	0.884947676734631
161	9.141516	-4.58765991210938	14.8826513671875	11.8846856689453	0.645529172325782	0.758801096102974	-0.0866774724442084	-0.705532013206258	0.549025468646887	-0.448102235118496	-0.292432327244298	0.350416796586568	0.889770421318046
162	9.141516	-5.56422912597656	16.1975170898437	13.8444104003906	0.651351261516278	0.755882019721836	-0.0662110744693867	-0.700319790184852	0.565291400904956	-0.435887397774193	-0.292050895558631	0.330284732199583	0.897562404559846
163	9.141516	-8.48196166992188	14.6868585205078	8.96096557617188	0.65425960016975	0.755325520714398	-0.0377853588476196	-0.695385993524069	0.581196100905568	-0.422669388887708	-0.29729227301809	0.302810914680579	0.905495916254761
164	9.141516	-10.7787854003906	15.2568731689453	6.9599267578125	0.652349671061114	0.757863874540464	-0.0090694174548982	-0.694749238587605	0.593153929247632	-0.406806971056346	-0.302924746675473	0.271681364625199	0.91346912042334
165	9.141516	-8.363408203125	13.2558343505859	4.50682800292969	0.649337678223656	0.760253445339255	0.0193721059491085	-0.697493248537109	0.605499180429957	-0.383241321811467	-0.303090329578926	0.235341116994974	0.923445077287922
166	9.141516	-6.68749328613281	11.5475866699219	2.63332397460938	0.644413749299116	0.763047227620924	0.0498983780726072	-0.700711634782785	0.615376237166186	-0.360992093557771	-0.306160292321347	0.197663894404635	0.931232978504574
167	9.141516	-5.17683471679688	9.30045959472656	2.77822265625	0.640226445644011	0.765123576499493	0.0685274469293898	-0.707626801295239	0.622120025124018	-0.335008931863554	-0.298955529112114	0.165989719634426	0.939719641483023
168	9.141516	-2.442919921875	6.63300659179688	2.75307495117188	0.640575466332747	0.762214325285956	0.0932330105781198	-0.708338068079117	0.63340411085022	-0.311538783569536	-0.296513495885984	0.133523610971687	0.94564855632024
169	9.141516	-4.96188171386719	5.16426086425781	2.93689270019531	0.642299878248211	0.759059128510423	0.10620784258863	-0.712761257243876	0.642493945916129	-0.281376828529379	-0.281819546118545	0.105027467293657	0.953701721996672
170	9.141516	-3.71647155761719	4.31103515625	4.00088012695312	0.645174854962595	0.753271663553505	0.127793612560766	-0.711768047750248	0.653372900316768	-0.257856741880943	-0.277733060195929	0.0754032759168364	0.95769446759142
171	9.141516	-4.46970520019531	4.39905212402344	4.23020324707031	0.646943038537127	0.747161008415251	0.152365128530955	-0.711707932299659	0.663372933548962	-0.231102077308685	-0.273745363412961	0.0410704095249852	0.960924917707599
172	9.141516	-2.58123229980469	4.6894482421875	3.95058471679688	0.644425736027507	0.741817817243963	0.185531120744761	-0.712262347649226	0.670599897940572	-0.20731166152271	-0.278204634876233	0.00145013844020231	0.960520732848535
173	9.141516	-0.686771850585937	3.52307373046875	1.77470947265625	0.637367346050209	0.737362895537317	0.223738299076703	-0.713894979254945	0.674344219661463	-0.188716273818011	-0.290029006796724	-0.0394440577780299	0.956204654622905
174	9.141516	0.53887939453125	1.91481811523438	3.06263122558594	0.634258633202278	0.731553960576984	0.250089561902345	-0.718001836421999	0.677322072443591	-0.16033768451414	-0.286686848500268	-0.0778692040851006	0.954854459041867
175	9.141516	-4.40743469238281	2.82672180175781	1.66154479980469	0.632891410892073	0.721734762398598	0.280263081344083	-0.718838594450782	0.682222748928684	-0.133578426297863	-0.28761004354345	-0.116923280785428	0.950583720281021
176	9.141516	-3.10214904785156	1.96451477050781	-4.33199157714844	0.627259507295856	0.713555871118099	0.312063341807158	-0.723018228867275	0.682460585512264	-0.107201632207204	-0.28946528502152	-0.158384241688212	0.943993792750917
177	9.141516	-1.0202783203125	1.88667663574219	-8.75858642578125	0.621834860080318	0.705869642632393	0.339218888623422	-0.729639762964908	0.679539115482302	-0.0765010250260994	-0.284512254726235	-0.199936585295308	0.937591669529464
178	9.141516	0.354462890625	2.09145080566406	-13.6935241699219	0.616533086093601	0.695652316309441	0.368720501959426	-0.734662756450068	0.676710555602455	-0.0483058818510295	-0.283121154344018	-0.241103045915077	0.928284295468465
179	9.141516	-0.375419311523437	1.90763305664062	-16.5184497070313	0.607491316881105	0.689407008833383	0.394553261405186	-0.745125622313013	0.66669055108862	-0.0176498176137221	-0.275212839247567	-0.283269633495297	0.918703547316943
180	9.141516	5.64326477050781	1.35617980957031	-19.62	0.598723010533383	0.683279255552414	0.417923695893858	-0.753683426309659	0.657216827935124	0.00522819137242447	-0.271094171025449	-0.318112401535422	0.908467088245574
181	9.141516	6.39290588378906	-0.406554565429688	-19.62	0.595830820515542	0.677659072053381	0.431003266098444	-0.758503194902831	0.651200914250214	0.0247036961178582	-0.263929037140618	-0.341636577876895	0.902012146265553
182	9.141516	7.63412475585938	-0.722697143554688	-19.62	0.596593274845307	0.677241769953461	0.430604284047029	-0.76039081062243	0.648606587426894	0.0333962552901091	-0.256675436164654	-0.347351521915108	0.901922746521532
183	9.141516	5.38460266113281	-2.79678405761719	-19.62	0.59870765816321	0.678579935003551	0.425533091389261	-0.758074310786831	0.651587266349441	0.0275204225318748	-0.258597137226606	-0.339062392697625	0.904524302866632
184	9.141516	4.80021789550781	-1.93397827148438	-19.62	0.605402940933419	0.688828776208681	0.398750794577287	-0.753817137108558	0.657015441911306	0.00950962099920249	-0.255434928916592	-0.306342334908093	0.917010016811394
185	9.141516	1.78189453125	-1.27654541015625	-19.62	0.613300043652777	0.700429898393141	0.365049330765687	-0.749000821563259	0.662447363033259	-0.0126988388384495	-0.250720612940111	-0.265634050240657	0.930901566009898
186	9.141516	0.831670532226563	0.209564208984375	-16.99505859375	0.620801934044017	0.710619588921893	0.331096297967358	-0.743988422369999	0.667169986274813	-0.036951817187597	-0.24715619771029	-0.22339205280078	0.94287316468274
187	9.141516	-3.45301940917969	1.41366027832031	-12.8289221191406	0.624115281940585	0.722132812965063	0.298335910153957	-0.741656949769388	0.667664520775976	-0.0645682317843302	-0.245815141329805	-0.180964880946976	0.95227445001788
188	9.141516	-1.92978698730469	3.21651123046875	-6.79107788085938	0.620674633957688	0.736901335114419	0.267842157003106	-0.743488035078351	0.661620095820322	-0.09738783549315	-0.248974979579922	-0.138691279874744	0.958528136483162
189	9.141516	2.07767944335938	5.14090942382813	-6.4617626953125	0.616094754157855	0.750795444899828	0.238187854049786	-0.745191786489813	0.653545369930295	-0.132543014869876	-0.255179261005464	-0.0958365763179377	0.962132472891525
190	9.141516	2.33933532714844	3.30452819824219	-1.79686340332031	0.619428197863196	0.757053549681967	0.207794683776769	-0.740649985289819	0.651306211187795	-0.165038839545095	-0.26028120750862	-0.0516734185257153	0.964149133088716
191	9.141516	-0.914298706054688	8.14845520019531	-1.62322448730469	0.627373155529021	0.75846624925701	0.176442263813301	-0.731560380961674	0.651703224901337	-0.200255625789658	-0.266875125721318	-0.00344316586890199	0.963724966927821
192	9.141516	-1.89026916503906	8.72924743652344	0.0425115966796875	0.631295839087825	0.761985252943859	0.144374644056647	-0.726463985914633	0.646180780252256	-0.23388132974141	-0.27150624434702	0.0427653309196813	0.961486081933538
193	9.141516	-1.51185607910156	8.48076416015625	5.85282897949219	0.634579237170018	0.764747851155505	0.111668777667509	-0.722392984620248	0.638274519278474	-0.265996266536362	-0.274695408633214	0.0881269663205909	0.95748424022694
194	9.141516	-4.86129089355469	8.3202978515625	2.32436645507813	0.636490016001961	0.766123868221783	0.0890768099491379	-0.713327366742655	0.628645916683315	-0.309787635798112	-0.293333474710632	0.133635810987496	0.946623971086673
195	9.141516	-5.14210693359375	10.9164990234375	2.92851013183594	0.6343671558333	0.770612828551943	0.0611079378734467	-0.709727387513252	0.611925137782118	-0.349048221831815	-0.306374520829631	0.178054750628875	0.93511023883011
196	9.141516	-5.69475769042969	12.7289300537109	5.63847473144531	0.632642054477407	0.773878839047986	0.0295900892250632	-0.707388402626824	0.592994160070983	-0.384655136389444	-0.315223220489349	0.222417329800202	0.922585959501266
197	9.141516	-7.03896240234375	13.5402429199219	3.89549926757813	0.630263859583792	0.776348758147871	0.0070762295611172	-0.700079103211054	0.572238900861213	-0.427120462619571	-0.335643734560543	0.264244670832563	0.904167040643952
198	9.141516	-7.33295104980469	14.8545098876953	5.71272033691406	0.626615471712818	0.779210235644033	-0.0135815786156512	-0.695516136041341	0.551279474480397	-0.460812592626049	-0.351582643366031	0.298198507179677	0.887393540206129
199	9.141516	-6.88867492675781	15.4760174560547	4.55772216796875	0.622018547538484	0.781562724753544	-0.047461919408413	-0.696441459339574	0.524533806370289	-0.489728067081784	-0.357857821251791	0.337674389390893	0.870582440966052
200	9.141516	-6.44559631347656	14.6976361083984	6.13184875488281	0.614415952135628	0.785578211097471	-0.0732114199436605	-0.699483563233321	0.499442912646179	-0.511155085833955	-0.364987373107188	0.365272023643201	0.856364739007811
201	9.141516	-4.6798681640625	15.5819970703125	8.30952026367187	0.609826892228473	0.785885455266332	-0.102446145441361	-0.7033166955271	0.477052566955166	-0.527035553026861	-0.365317378874594	0.393452537877592	0.843645845796611
202	9.141516	-5.00319580078125	17.1058282470703	6.34081420898438	0.610517634611498	0.782501419222727	-0.122310043507477	-0.704135378008687	0.465575179999554	-0.536127896312948	-0.362576319228029	0.413438363825615	0.835228790243879
203	9.141516	-1.88787414550781	17.4986114501953	11.4248419189453	0.623979610967842	0.77426906224496	-0.10562605903247	-0.685027780779897	0.476933732375161	-0.550700603306794	-0.37601380912965	0.415982733022669	0.827992742221091
204	9.141516	-4.473896484375	16.0741735839844	12.0116217041016	0.631514212366255	0.769571377263631	-0.0946028269978648	-0.675344654326355	0.486000052337319	-0.554719340748941	-0.380919148182715	0.414202661054565	0.826641856019324
205	9.141516	-4.64214660644531	12.5283471679688	7.98978515625	0.633316630327793	0.768063797350975	-0.0948053213118899	-0.673615225600705	0.486793040797886	-0.556125042836285	-0.380988941557575	0.416065546073631	0.825673596393448
206	9.141516	-2.93150390625	13.3941467285156	11.4362182617188	0.634952828320061	0.766661367591271	-0.0952116235101472	-0.673166595743864	0.488582378672166	-0.555098183770822	-0.379053611225342	0.416554446254184	0.826317586114986
207	9.141516	-5.58159301757813	12.7726391601563	11.0745703125	0.640114742838492	0.76417867066204	-0.0792721597158106	-0.668285755759371	0.50292867135776	-0.548139489706265	-0.37900826461957	0.403848623659306	0.83262177759085
208	9.141516	-9.52499267578125	12.0050354003906	9.48727111816406	0.6387967625115	0.766317508671276	-0.0685286225505487	-0.671169398802382	0.511499343428647	-0.536563192721335	-0.376125423650244	0.38874914479123	0.841072986195617
209	9.141516	-9.85550537109375	12.3912322998047	9.62678100585938	0.637666972454155	0.768529248429306	-0.052379638695174	-0.671171284941714	0.520941562466469	-0.527398326471257	-0.378034308642536	0.371460203526137	0.848001992147118
210	9.141516	-10.4321063232422	13.3085247802734	7.75267822265625	0.635159151779085	0.771779851796285	-0.0304747809274885	-0.671176424608811	0.531979510033904	-0.516255758276283	-0.382223833585252	0.348358524031481	0.855892095870736
211	9.141516	-9.14837585449219	12.2116058349609	5.374423828125	0.632136423132412	0.774856442680429	-0.00101773571824557	-0.67199636066584	0.547567162741565	-0.498589102908416	-0.385777699979181	0.315860246824105	0.866837857199943
212	9.141516	-10.0351318359375	11.199111328125	4.01465148925781	0.626912968371972	0.778490947148069	0.0305282704315934	-0.674356621548761	0.561843677881734	-0.479139675457654	-0.390158015501902	0.279791934895965	0.877207612886932
213	9.141516	-7.38025268554688	11.2194689941406	2.49201782226563	0.615085299299643	0.786114150774283	0.0607833574088845	-0.682530938615983	0.569459747579263	-0.458112555731609	-0.394742438075074	0.240291776470584	0.886813548466168
214	9.141516	-3.93501708984375	11.0835516357422	2.80576538085938	0.599192011381314	0.794872557419436	0.0956376022195287	-0.690202778727698	0.573398208303045	-0.441400746432789	-0.405695769922956	0.198474462277503	0.892198873620829
215	9.141516	0.441881103515625	9.58367065429688	4.12182861328125	0.592972592025198	0.795526186463992	0.124585680384932	-0.696437352908411	0.584348073219638	-0.416548127829693	-0.404176345894764	0.160235501604842	0.900536543092284
216	9.141516	-5.51453247070313	8.11492492675781	2.81714172363281	0.583029971265289	0.796741583495916	0.158993401544898	-0.700930280227172	0.592229800559644	-0.39744258150045	-0.410819662220607	0.120277647372673	0.90374802499117
217	9.141516	-2.43214233398438	7.34372863769531	4.44395874023438	0.570852456135688	0.798444843533709	0.19134603512559	-0.709107758246782	0.59692094487609	-0.375301975431064	-0.413876383136408	0.0785570964500815	0.906937220583243
218	9.141516	-0.57240966796875	5.50495239257812	3.54882019042969	0.569161378258583	0.793013412278895	0.217221208551497	-0.715665006027379	0.607868406000727	-0.343976162159483	-0.404819619888441	0.0403203290155076	0.91350716823759
219	9.141516	-3.9422021484375	4.60083251953125	3.64162719726563	0.569255325050586	0.78458312597328	0.24571872810095	-0.718478582348992	0.620016858570749	-0.31522630250955	-0.399670991701093	0.002900607877	0.916654070446758
220	9.141516	-4.82177307128906	5.01816467285156	0.0239501953125	0.565296282834023	0.777057562611233	0.276806172262699	-0.721178725885091	0.628462473063024	-0.291438098542837	-0.400426470085074	-0.0348778488470606	0.915664882866548
221	9.141516	-3.23746765136719	7.1036279296875	-3.93501708984375	0.56096939601962	0.769287471260275	0.305794249931805	-0.725217548247091	0.63480889061535	-0.266603038448903	-0.399215285834425	-0.0722112107479253	0.914009133760958
222	9.141516	-2.66984802246094	9.23699157714844	-10.4590502929688	0.556250599567872	0.760063017191954	0.335990298040653	-0.728022315263788	0.64066248095785	-0.243998143375899	-0.400710342964013	-0.108884321139435	0.909711726675911
223	9.141516	-0.336500244140625	7.75148071289063	-14.9311505126953	0.555282962725598	0.749346626009643	0.360749865411821	-0.733504299611894	0.64570673577256	-0.212212756046401	-0.391959530765036	-0.146773449458373	0.908198921369401
224	9.141516	-1.33462463378906	7.10781921386719	-13.6689752197266	0.55417442287632	0.738038531424697	0.384954328670525	-0.738124848462288	0.649482960061923	-0.182602280028832	-0.384788795460863	-0.182950842363955	0.904691423727504
225	9.141516	-1.65435974121094	7.83231262207031	-11.7673297119141	0.554963450812058	0.728298687750718	0.401990783082591	-0.739888726673968	0.653019126895876	-0.161649905811672	-0.380237084466451	-0.20771865907696	0.901261736826613
226	9.141516	-0.440084838867188	6.87729858398438	-12.6259442138672	0.554588172730051	0.712179657230857	0.430385983152895	-0.740024206689384	0.658628693554859	-0.136280657248075	-0.380520869574445	-0.242916405071291	0.892297869528752
227	9.141516	-1.58610168457031	8.47238159179688	-14.5365710449219	0.554825368796171	0.697262721918986	0.453865075504075	-0.741026691857233	0.662168609802162	-0.111409937383511	-0.378217202273137	-0.274513075853953	0.884078231317728
228	9.141516	-2.43992614746094	9.06215515136719	-17.1567224121094	0.55349868155061	0.68030029725819	0.480448452044706	-0.740003089819247	0.666406342752514	-0.0910934322395841	-0.382144784839077	-0.305113244369427	0.872279354066493
229	9.141516	-1.25858276367188	8.64781677246094	-15.5616394042969	0.554332339123639	0.664658795739723	0.500943452944079	-0.739414109211934	0.669581836252144	-0.0701921623796418	-0.382076475198406	-0.331494871464144	0.862628956906116
230	9.141516	-0.438887329101563	9.84891906738281	-19.62	0.549943756695969	0.649457417102197	0.525135151977153	-0.740012671420705	0.67040944482091	-0.0541518460600424	-0.387224883766419	-0.35882619701725	0.849294206813058
231	9.141516	0.398770751953125	9.3932666015625	-19.62	0.550161752814391	0.638671539188289	0.537978355299783	-0.737463457935571	0.673833038579793	-0.0457895657113493	-0.391752082253443	-0.371547710461504	0.841714087384135
232	9.141516	-2.24533081054688	9.97166381835938	-19.62	0.548619813948467	0.644035784074235	0.533136200773343	-0.734938580850453	0.675498222229757	-0.0597280013223216	-0.398599525991528	-0.359054397823397	0.843918454166637
233	9.141516	-2.48662902832031	8.62626159667969	-19.62	0.544855056043382	0.653849091219031	0.524989841631255	-0.730945566359256	0.677152150200852	-0.0847557933011577	-0.41091549851972	-0.33755937461491	0.846877867042161
234	9.141516	-4.17511779785156	9.63456481933594	-19.62	0.541599437908897	0.670234307580166	0.507401243395502	-0.726224820194728	0.677051793646081	-0.119156952183914	-0.423399999279526	-0.303952038425735	0.853431660384672
235	9.141516	-4.17631530761719	10.8368646240234	-19.0607629394531	0.541725321042823	0.691034995072589	0.47854395004647	-0.722370708530635	0.673840227845751	-0.155305849193569	-0.429783941065741	-0.261553021243903	0.864219752771358
236	9.141516	-3.88172790527344	11.5613580322266	-14.5407623291016	0.541520832653764	0.711211204607439	0.448256411267936	-0.718719907755576	0.668260153733694	-0.192015783537803	-0.436115675019587	-0.21819025957328	0.873038446249393
237	9.141516	-2.44711120605469	12.1433477783203	-12.9923822021484	0.542671401632313	0.729856522846473	0.415712888793307	-0.715058548955164	0.661100162340184	-0.22723962444943	-0.440680180421762	-0.173942609536129	0.880650297888558
238	9.141516	-4.32241149902344	11.8044525146484	-12.425361328125	0.546131697122753	0.746464436962344	0.380172347427206	-0.711867004498259	0.652775310304876	-0.259094118349006	-0.441571667234773	-0.129132639587611	0.887884690761497
239	9.141516	-6.13544128417969	12.1193975830078	-10.7225024414063	0.542789856349311	0.764597258854801	0.34752007653662	-0.710124733699848	0.638743224277828	-0.296192430738674	-0.448444014824609	-0.0860123548735202	0.889662767781758
240	9.141516	0.417930908203125	11.2925170898438	-5.07983642578125	0.533435130265325	0.786661560010924	0.310822379824869	-0.716685274930831	0.615525732106633	-0.327857117982686	-0.449231764789774	-0.0478713182999336	0.892131805501907
241	9.141516	3.31710205078125	8.14366516113281	-1.53221374511719	0.535998943398639	0.797809394858542	0.276053078503012	-0.71170617231196	0.602901137610367	-0.360533691298311	-0.454069881151132	-0.00322300226080613	0.890960243382288
242	9.141516	0.219144287109375	6.76413391113281	-5.14809448242188	0.54317558680536	0.803142448450723	0.244790705287662	-0.6999615690345	0.594168073033794	-0.396255098215869	-0.463696111449528	0.0438920093398069	0.88490644010692
243	9.141516	-0.429906005859375	8.22389831542969	-3.04347106933594	0.561760846829694	0.802278766412146	0.20192456991013	-0.691486649651099	0.589332131932732	-0.417772487875782	-0.454170633488652	0.0950600822418524	0.885828773771032
244	9.141516	-4.35354675292969	8.70589599609375	0.928668823242188	0.565358117432252	0.809222473970012	0.159778555117117	-0.693297222361692	0.571140521525973	-0.439474079026969	-0.446888308774153	0.137686209523298	0.883930623515265
245	9.141516	-1.06698120117188	9.98004638671875	3.59791809082031	0.56634520767208	0.815005726066032	0.122551100470164	-0.691625758656422	0.550851384889121	-0.467136555761446	-0.448226411214018	0.17980105184708	0.875650995571229
246	9.141516	-4.38767578125	12.9109515380859	2.86983215332031	0.571120705702807	0.816726139261152	0.0823380408140802	-0.689183526899608	0.531573596367857	-0.49239778420984	-0.445922869751873	0.224472548638171	0.866466888657691
247	9.141516	-6.04083801269531	14.7778692626953	5.51093994140625	0.574116777133895	0.817651128948294	0.0428550760467164	-0.687030161991978	0.509551565977852	-0.518021966834222	-0.445398117111722	0.267962372244871	0.854293090417004
248	9.141516	-4.75351501464844	17.0531378173828	8.13707885742187	0.58166992951941	0.813424817456105	-0.0003992986204778	-0.68520558416391	0.489717301535009	-0.539138453467998	-0.438353054652846	0.313874227874434	0.842217055486736
249	9.141516	-3.60989318847656	18.4548229980469	4.32181274414063	0.579672520254798	0.813373865388975	-0.0490175923893591	-0.693125845605707	0.460558304633216	-0.554493111036333	-0.428434745807135	0.355399779312785	0.830743441412329
250	9.141516	1.94595336914062	18.0548547363281	7.12099182128906	0.567892146961757	0.817941228441744	-0.0920361680774363	-0.703152794165145	0.423966156211441	-0.570814196078765	-0.42787224434043	0.388876388075321	0.815904710931722
251	9.141516	3.14406188964844	18.2901654052734	6.79107788085938	0.566438457347781	0.815235870706132	-0.120573418096531	-0.702534578962816	0.401199307639311	-0.587779108944233	-0.430804641802993	0.417647687248179	0.799986106090126
252	9.141516	1.93218200683594	16.6872985839844	2.09444458007813	0.564750260556255	0.811618624445817	-0.149440127323026	-0.701868763502597	0.377117879455259	-0.604286640440202	-0.434093747963477	0.446158395021151	0.782627181058244
253	9.141516	0.265248413085937	17.8973822021484	6.42164611816406	0.566173518849514	0.804352646325372	-0.180178708239708	-0.700515491308578	0.354321291957181	-0.619463048536793	-0.434425589704683	0.476941550313207	0.764068821896676
254	9.141516	-1.30827941894531	17.4309521484375	7.44132568359375	0.567142854158265	0.799411922146277	-0.198215947157666	-0.697677646176182	0.338397238476611	-0.63145325323215	-0.437715529771653	0.496415035753146	0.749651403837093
255	9.141516	-3.07640258789063	16.5388073730469	6.78030029296875	0.5653617205024	0.796440960648755	-0.21458779366836	-0.693253111694127	0.31783712134016	-0.646822763533112	-0.446952176543507	0.514452486143365	0.731828116010812
256	9.141516	3.82304992675781	18.8853277587891	19.6194012451172	0.571944857059179	0.79157395994961	-0.215150520364813	-0.689760440770128	0.322137220782249	-0.648427440300984	-0.443970285978864	0.519267057414952	0.730241130210743
257	9.141516	0.199385375976563	15.0185687255859	9.21423889160156	0.573301132104335	0.792818378843029	-0.206796591114552	-0.687529072776438	0.328206336355976	-0.647753328716232	-0.445678792422367	0.513536385219683	0.733246749082764
258	9.141516	1.18613342285156	14.8730712890625	5.68996765136719	0.575445937636564	0.79337185785605	-0.198552431411997	-0.685278610406841	0.335239617307951	-0.64653509193708	-0.446380105937132	0.508109726485588	0.736593040202185
259	9.141516	-2.09564208984375	17.4111932373047	10.6482568359375	0.584414504676662	0.788729230766527	-0.190698419652539	-0.682607718663425	0.350780016347525	-0.641092881377063	-0.438755500415263	0.50483619191345	0.743393590360906
260	9.141516	-4.99840576171875	18.7128863525391	8.21611450195313	0.590105785783733	0.789999707861239	-0.166359920544947	-0.678450518839889	0.373573414166352	-0.632572365594625	-0.437584340522428	0.486151587272173	0.756423544796365
261	9.141516	-4.97265930175781	19.2002728271484	6.20010681152344	0.594332455876985	0.792703714982626	-0.135608820303017	-0.672969171714837	0.397892375919889	-0.623533600623313	-0.440319685924532	0.46184681165682	0.769945515442327
262	9.141516	-6.17675537109375	18.8320385742187	6.93298278808594	0.596149730707065	0.796653524129642	-0.0997429750394316	-0.665580737541937	0.420901527566559	-0.616315005419525	-0.449007550483314	0.433803027402944	0.781157572468587
263	9.141516	-6.70665344238281	18.5614013671875	5.30077697753906	0.594731745913515	0.801701945276018	-0.0597339212115773	-0.655472384958784	0.440548771709735	-0.613410737028207	-0.465456875509543	0.403968774394374	0.787501826255153
264	9.141516	-6.98148193359375	17.3028186035156	5.10797790527344	0.589058681665716	0.807869989667998	-0.0188666199430902	-0.647009383483717	0.457522375220186	-0.609960764194632	-0.484137095499063	0.371509563762103	0.792206991129858
265	9.141516	-5.76780578613281	15.8346716308594	0.485590209960938	0.577103494148773	0.816283272416177	0.025162992962192	-0.638127888541968	0.469949558900847	-0.609869010488212	-0.50965120906974	0.335900329357441	0.792102653594416
266	9.141516	-4.74393493652344	13.0163323974609	-0.590372314453125	0.555945328221986	0.829040993410957	0.0601317160267592	-0.645052918935315	0.47592663872577	-0.597829880755571	-0.52424376372178	0.293572590333916	0.799364504092756
267	9.141516	-1.82560363769531	9.91118957519531	1.99026123046875	0.542685294821091	0.834805619508419	0.0926943818260374	-0.651840800681319	0.4881826470515	-0.58032859113172	-0.529713357724801	0.254513812503282	0.809089907175316
268	9.141516	-1.91242309570313	7.90236694335938	1.77830200195313	0.529109392226727	0.839647178166051	0.12262082716754	-0.660279634640544	0.498156812862624	-0.562023659535346	-0.532985980243771	0.216407961952284	0.81798138051379
269	9.141516	-2.57943603515625	6.58570495605469	2.09025329589844	0.521847318799294	0.839497376589602	0.151391976541575	-0.669192237342323	0.512941261967412	-0.537655104367154	-0.529015241125211	0.17926353915522	0.829462149942226
270	9.141516	-2.77822265625	5.41873168945312	0.521515502929688	0.517518754239392	0.835860324225705	0.183062441248355	-0.672760618736314	0.529670350920106	-0.516567971552344	-0.528741419682665	0.144176411876115	0.836448249068936
271	9.141516	-4.06853942871094	5.78876220703125	-0.5987548828125	0.513465319231528	0.831258340861898	0.212985766411729	-0.677568495053143	0.545049313902549	-0.493783535494837	-0.526549428314081	0.109228275468794	0.843098382978065
272	9.141516	-3.84101257324219	7.10243041992188	-2.92970764160156	0.503345580328405	0.827806793014797	0.247748138645719	-0.679377106297633	0.556303461556309	-0.478511448242488	-0.533938174513225	0.072542209085647	0.842405872307677
273	9.141516	-2.00582885742188	9.00287841796875	-7.96164367675781	0.492800055330645	0.824360692774164	0.278527473824421	-0.685614371787921	0.564965121270193	-0.459072265494235	-0.535799438842528	0.0352683988445162	0.84360838152485
274	9.141516	-2.13216613769531	10.4961730957031	-10.3931872558594	0.479974971378732	0.821134816357009	0.308806800793517	-0.693669154156791	0.57072476035466	-0.439427300573733	-0.537072743137638	-0.00329564628839268	0.84352949402742
275	9.141516	-0.044307861328125	11.4529833984375	-11.256591796875	0.46768883983196	0.816863891547384	0.337639647823977	-0.703352193402663	0.575284831186906	-0.417544075567977	-0.535315646261436	-0.0421988825956014	0.843597305102016
276	9.141516	1.51724487304688	12.5840313720703	-11.1200756835938	0.45774935614689	0.810692321077399	0.365025324454683	-0.713178442334611	0.579966739543175	-0.393719558077621	-0.530887969666186	-0.0801033180948082	0.843647688371109
277	9.141516	2.17767150878906	12.9953759765625	-15.9388549804688	0.453338364046082	0.805022559186891	0.382652592940661	-0.721822153642203	0.583432872769711	-0.372261818459823	-0.522931263356241	-0.107446554955806	0.845575621474966
278	9.141516	-0.348475341796875	12.9055627441406	-14.0144567871094	0.452438636194425	0.798479553436307	0.397151964898431	-0.728280744593683	0.587843206367567	-0.35220380716507	-0.514690623124805	-0.129887518536825	0.847480262304525
279	9.141516	0.81670166015625	12.2613024902344	-16.3621746826172	0.45415081715114	0.787308432862867	0.417004156842553	-0.730674253109728	0.596956423373119	-0.331297697601592	-0.509766781110239	-0.154235080758531	0.846374248627589
280	9.141516	-0.0245489501953125	11.18953125	-19.62	0.451475507008298	0.777287084177995	0.438171947232671	-0.733194845115076	0.60303401329787	-0.314285376533088	-0.508522551779448	-0.17937326326946	0.842157970190738
281	9.141516	3.47217956542969	11.5110626220703	-19.62	0.447031270720953	0.768974804988037	0.456991019924048	-0.733657316346932	0.607468556644123	-0.304514194840446	-0.511771418866108	-0.199147437800032	0.835721432565573
282	9.141516	3.76556945800781	9.00826721191406	-19.62	0.449042749697386	0.770440421788238	0.452528634916038	-0.726031271732561	0.609822221536425	-0.317797814005666	-0.520806299319249	-0.185845136054568	0.83320008641037
283	9.141516	1.22205871582031	8.61428649902344	-19.62	0.451123494024454	0.773863827362378	0.444547376371992	-0.715085672518814	0.611464526141454	-0.338767788062742	-0.533985087898047	-0.16506335138564	0.829224948932349
284	9.141516	-1.33761840820313	10.1273400878906	-19.62	0.455894406081055	0.783171672084877	0.42285035479207	-0.701395085590246	0.608604727605297	-0.371005686541776	-0.547909868877951	-0.127445743672593	0.826772252803568
285	9.141516	-2.94048522949219	12.1708905029297	-19.62	0.460871178052001	0.797638166456917	0.389064406817443	-0.689280780798234	0.597862909004813	-0.409208928615298	-0.559007837568614	-0.0795820171115997	0.82533444135654
286	9.141516	-1.2885205078125	13.4157019042969	-15.835869140625	0.473430791146226	0.807797975091088	0.351177615222547	-0.675381545226688	0.588841609374537	-0.443987981184645	-0.565440584289693	-0.0269812992263651	0.824347593634013
287	9.141516	-1.6908837890625	14.2988653564453	-13.4276770019531	0.489188947619693	0.814019327867248	0.313156043188203	-0.658616734832144	0.580153984478285	-0.479213262434393	-0.571767584011006	0.0281760208781122	0.819931668934487
288	9.141516	1.71663024902344	15.0425189208984	-11.8810931396484	0.512897323743454	0.811326417094905	0.28050985761778	-0.628370061926914	0.577454381106848	-0.521246105994543	-0.584882381826269	0.0910817361739037	0.805988037606501
289	9.141516	-0.292791137695313	10.0560882568359	-6.48391662597656	0.53368325755092	0.811314934075097	0.238642532580762	-0.616278494106757	0.566349054294556	-0.547219851980144	-0.579122610775427	0.144971812592601	0.802246954024925
290	9.141516	4.54874084472656	8.08259216308594	-8.03888305664062	0.552251309571667	0.809310377346598	0.200087991132615	-0.601649335003732	0.553038822694492	-0.576338562203032	-0.577093206307219	0.197900918926106	0.792337464419206
291	9.141516	5.96479614257813	6.49948425292969	-6.49110168457031	0.576365959560616	0.801701741385744	0.158355923535673	-0.588396705670988	0.541604491663134	-0.600378123656955	-0.567090466694071	0.252861409608866	0.783881056101829
292	9.141516	4.9481103515625	6.42164611816406	-9.36871765136719	0.602637046084373	0.789906038185835	0.113477052853249	-0.577444822911774	0.529785949353216	-0.621195882439913	-0.550804926611129	0.30882891494397	0.775395791912388
293	9.141516	-0.976569213867188	6.42942993164062	-7.39162902832031	0.629059161691476	0.774230740884508	0.0696514964766993	-0.565937968880476	0.517555907760911	-0.641755481255299	-0.532915365204888	0.364283738603859	0.763739858405554
294	9.141516	-2.38603820800781	7.65208740234375	-7.05812255859375	0.649346334024777	0.760074316848429	0.0252264019625646	-0.559354403477087	0.499815274835381	-0.661292176236817	-0.515239740120436	0.415297151337001	0.749704132502948
295	9.141516	-2.81953674316406	12.3828497314453	-2.33813781738281	0.67139357569603	0.740573979611846	-0.0279436439279632	-0.560788650351995	0.483029382700505	-0.67245721431505	-0.484506714247066	0.467153931985852	0.739608306929871
296	9.141516	-3.87274658203125	15.7035443115234	1.98487243652344	0.685626751455389	0.723208677210401	-0.082976905801024	-0.569240805741767	0.461599091144627	-0.680361068942748	-0.453740964391793	0.513707590232066	0.728164575470937
297	9.141516	-2.77103759765625	15.7053405761719	1.01429077148437	0.69702064095863	0.705155844609652	-0.130067139933451	-0.572302035955235	0.437801184225047	-0.693397795448356	-0.432009960208226	0.557750264817503	0.708718587576827
298	9.141516	-5.50076110839844	18.4739831542969	1.64358215332031	0.703963685678921	0.691258248005015	-0.163086369174088	-0.565795351083011	0.407014526183868	-0.717087718600852	-0.429314278749499	0.597077222845051	0.67763414909628
299	9.141516	-2.89078857421875	19.4523486328125	1.92320068359375	0.707959481497065	0.678080803225549	-0.197483662249315	-0.562789850316657	0.372711150596102	-0.737803485083858	-0.426686016807398	0.633476773463972	0.645481386674096
300	9.141516	-2.31239135742188	18.4614093017578	2.48782653808594	0.710843322600554	0.663836970617297	-0.232426864101065	-0.561803407491065	0.337068531505945	-0.755487747352565	-0.423176915775935	0.667611624756547	0.612548786991119
301	9.141516	-2.41717346191406	18.8721551513672	1.02387084960938	0.71574738775942	0.645333495419121	-0.266927624283635	-0.559841856041084	0.301726657278449	-0.77171116391565	-0.417471883053265	0.701787506284996	0.577244768605353
302	9.141516	-1.57831787109375	19.6194012451172	1.04602478027344	0.722964678868354	0.625818013182936	-0.292701020641438	-0.553799459367042	0.271634012803039	-0.787096640758484	-0.413071703114058	0.731140737111728	0.542959474198738
303	9.141516	-0.544866943359375	18.8374273681641	2.47884521484375	0.730896600389377	0.60887239305016	-0.308325426328454	-0.545060902310728	0.248880614799936	-0.80060417957254	-0.410729561039215	0.753215008187023	0.513778531208104
304	9.141516	-3.439248046875	19.6194012451172	-0.874780883789062	0.737018185410053	0.594932775005841	-0.320716678080082	-0.529718004701115	0.213752410386237	-0.820797625818657	-0.419765446255815	0.774832175556697	0.472686016137281
305	9.141516	-6.01030151367187	18.6039129638672	8.30293395996094	0.742596587954056	0.592189789675333	-0.312828324426161	-0.508804502062499	0.195098045503228	-0.838483590371185	-0.435509226354537	0.781823513105807	0.446187973969456
306	9.141516	-9.10167297363281	14.1342077636719	11.5128588867188	0.739413675795543	0.604416328452915	-0.296560816606006	-0.501087466913136	0.199874014856721	-0.841998651238606	-0.449642932279715	0.771188226106022	0.45065502700663
307	9.141516	-0.319136352539063	17.6135723876953	5.6330859375	0.753608528381229	0.592881963820922	-0.283840030522346	-0.477638393936335	0.197256052902985	-0.856125933628373	-0.45159246073091	0.780756701264217	0.431837032735754
308	9.141516	-8.78553039550781	16.1364440917969	6.56055725097656	0.758460756019485	0.596005807731659	-0.26365575800366	-0.46558000435535	0.212428873761613	-0.859132837887626	-0.456040065260525	0.774371390705071	0.43860735075312
309	9.141516	-7.69160522460938	17.3022198486328	2.73690856933594	0.756935278759614	0.6018356500068	-0.254642561544606	-0.466609981009791	0.224940311303345	-0.855381191032862	-0.457519518043928	0.766286961086802	0.45108777846136
310	9.141516	-10.0788409423828	17.5782458496094	3.79909973144531	0.755898181457102	0.610675373435091	-0.235994761699831	-0.462486882421461	0.242947989220066	-0.852691127033702	-0.463383019604652	0.753692153875732	0.466073292871664
311	9.141516	-9.49146240234375	18.5506237792969	0.314346313476562	0.749630006105159	0.623792543570931	-0.221218707464102	-0.464357715074124	0.257521413340408	-0.847381044231163	-0.471621422751255	0.737946870890085	0.482708658867453
312	9.141516	-9.35015625	16.6615521240234	-0.755628662109375	0.739873304144755	0.644161236739138	-0.194020088899646	-0.460473791426771	0.27464653111843	-0.8441167989998	-0.490460376812417	0.713880651108655	0.499823003421917
313	9.141516	-8.61967529296875	14.8377447509766	-2.00283508300781	0.724033873206751	0.671165124097896	-0.159098480960339	-0.450554248965604	0.28553688386642	-0.845854335385766	-0.522279445496635	0.684109687218732	0.509134674389024
314	9.141516	-5.7911572265625	15.1191595458984	-2.53931945800781	0.699785557633734	0.701159787610724	-0.136656963104445	-0.453958454032423	0.288780990257983	-0.84292779149706	-0.551563138126305	0.651905278321401	0.520382179515171
315	9.141516	-5.27024047851563	15.8388629150391	0.444874877929687	0.674554598517993	0.729789307805433	-0.11128189354561	-0.460881646798745	0.298562843328614	-0.835732215621494	-0.576683796601141	0.615034791533293	0.537743436911408
316	9.141516	-5.03612731933594	15.5275103759766	-0.99872314453125	0.648425576006449	0.756069305598314	-0.0889015045586319	-0.468539753969469	0.304311190968575	-0.829376391032152	-0.60001230931618	0.57944275315459	0.551571685717908
317	9.141516	-2.96323791503906	11.8619329833984	1.27714416503906	0.620755301110796	0.781604012605413	-0.0613027211627876	-0.480404914	0.317415480445022	-0.817593133152737	-0.619575640860337	0.536975400044521	0.572523750598636
318	9.141516	-4.51940185546875	10.8488397216797	-0.176033935546875	0.595742835015215	0.802531369916197	-0.032153923997964	-0.490238035893691	0.331623937647553	-0.80603488270808	-0.636205267732932	0.495952582692704	0.590993987303852
319	9.141516	-4.24756713867187	8.36580322265625	-2.46806762695312	0.566167548228198	0.824280584992683	-0.00397800671089432	-0.504477078232576	0.342681782917215	-0.792509983025199	-0.651887401988406	0.450700247238449	0.609845966017655
320	9.141516	0.8861572265625	9.26992309570313	-7.70837036132813	0.537466760343543	0.842965067467875	0.0232244817961101	-0.518890355240505	0.352298315869629	-0.77887014057146	-0.664742266419248	0.406565851571803	0.626755077818677
321	9.141516	2.86025207519531	6.53421203613281	-2.6441015625	0.522267866240628	0.852195300446558	0.0316140125460651	-0.54708060385361	0.363255296718895	-0.754154097179639	-0.654170534936901	0.3765750380767	0.655936088287495
322	9.141516	3.04586608886719	6.79646667480469	-5.03792358398438	0.515483303975221	0.855131382794692	0.055020736840095	-0.56093351116773	0.38528330666472	-0.732741680030924	-0.647788977501031	0.346853127079945	0.678278960946771
323	9.141516	-1.27474914550781	7.865244140625	-6.83418823242188	0.509684846751646	0.856617607505248	0.0801725108982913	-0.571121542435457	0.406557279077708	-0.71311384967274	-0.643460597673157	0.317675075101771	0.696448853758256
324	9.141516	-0.767603759765625	9.44176574707031	-13.2696057128906	0.496630411355207	0.861205961093941	0.108085739546995	-0.57931093967684	0.42162170863943	-0.697591549529311	-0.646341295050762	0.283829926858021	0.708296197174512
325	9.141516	2.44711120605469	11.601474609375	-11.7140405273437	0.477636433071346	0.867591715689605	0.138376488861546	-0.586963794417382	0.432320053979881	-0.684523830826935	-0.653710135951731	0.245731531948183	0.715736733974419
326	9.141516	1.98846496582031	12.7822192382813	-14.1713305664063	0.459601650435463	0.871545926292984	0.170804043509228	-0.59069185067814	0.443590262566345	-0.67402582776831	-0.663211474915379	0.208890826314669	0.718689892945589
327	9.141516	2.40879089355469	15.2029852294922	-12.272080078125	0.449183259479808	0.870711105421144	0.200241280208115	-0.595087968188149	0.458746613679273	-0.659865027528738	-0.666411816762576	0.177239147295651	0.724211001811706
328	9.141516	0.865200805664063	16.1077038574219	-18.4476379394531	0.441105717325425	0.867733604680474	0.229050512881009	-0.598829596843668	0.474679107149964	-0.64504485051767	-0.668452586266874	0.147370745209298	0.729008232717289
329	9.141516	0.24668701171875	14.2958715820312	-17.3088061523438	0.43287208882512	0.865487197607763	0.252098523385677	-0.601685728661504	0.485642292572531	-0.634133935056287	-0.671264507211019	0.122814797324908	0.730972288747522
330	9.141516	3.66138610839844	14.5377685546875	-19.62	0.427072222527135	0.86364892260653	0.267805629564266	-0.602756701290928	0.492687105655315	-0.627649404500529	-0.67401311247973	0.106629988284576	0.730983152886453
331	9.141516	3.59492431640625	12.2690863037109	-18.7739593505859	0.423121238187433	0.860980447593363	0.282278385032696	-0.597910229549067	0.499397766843282	-0.626981042673959	-0.680787613867435	0.0965118611046136	0.726094818512574
332	9.141516	4.98822692871094	12.0523370361328	-19.62	0.420800730109677	0.860724428267083	0.286496429512598	-0.600344873054832	0.500995164197855	-0.623369776976029	-0.680082920632434	0.0903177946734159	0.727550628499069
333	9.141516	5.39118896484375	10.6261029052734	-19.62	0.423880559723623	0.862668512471239	0.275913589152561	-0.5924102838313	0.494507268580287	-0.636013063491768	-0.685109718730735	0.106139525681646	0.720665716118624
334	9.141516	1.89565795898438	9.89562194824219	-19.62	0.429200227319274	0.866169801202321	0.256002031933764	-0.573652508489458	0.480345890834126	-0.663468631257366	-0.697646016524738	0.137904679557667	0.703045044775413
335	9.141516	1.9974462890625	11.4793286132813	-19.62	0.444884767375363	0.868010289571869	0.220534988051172	-0.552950005033491	0.45992704349976	-0.694775795916231	-0.704502544843404	0.187150345591268	0.684580829744916
336	9.141516	-0.24189697265625	15.1904113769531	-19.62	0.471679222267057	0.864185779581656	0.175218862142151	-0.534272041556399	0.438177778328989	-0.722878703649395	-0.70147850779101	0.247352325534889	0.668389654438024
337	9.141516	-1.60047180175781	18.9943011474609	-15.7005505371094	0.493953720123691	0.860598137696472	0.124018417057028	-0.528459142255811	0.410412640919951	-0.743163776794431	-0.690464088379851	0.301549845906901	0.657515804442225
338	9.141516	3.50570983886719	19.6194012451172	-12.3092028808594	0.515942486894305	0.853820808805693	0.0692342160186193	-0.529974288624906	0.38165575561562	-0.757275470091298	-0.673001191391104	0.354018234919987	0.649415495449787
339	9.141516	3.44044555664063	17.7075769042969	-7.750283203125	0.538569286044146	0.842042508713605	0.0301253655446518	-0.510622040532596	0.354615895606898	-0.783270514129854	-0.670230002202399	0.406462765948146	0.620950693731439
340	9.141516	6.13723754882812	13.7049005126953	-7.78022094726562	0.568170885466534	0.822862348049309	-0.00891072785766533	-0.491588130426687	0.330708633921029	-0.805588548499593	-0.659941629942959	0.462092366971004	0.592408380642413
341	9.141516	1.76453063964844	9.1920849609375	-6.57372985839844	0.600071759104689	0.797896312657671	-0.0572307449916215	-0.488425224713709	0.308789104153137	-0.816143424294815	-0.633525598368658	0.51769755978138	0.575008306729597
342	9.141516	-3.12250671386719	6.79407165527344	-8.35682189941406	0.623019141742422	0.774922380933828	-0.106500950936525	-0.491324699938057	0.281747233476906	-0.824147156555726	-0.608643728508982	0.565786001908811	0.556272425876681
343	9.141516	-5.58159301757813	6.58390869140625	-8.58973754882813	0.636178074598192	0.756009271605462	-0.154037133987613	-0.497109017830466	0.248956299339034	-0.831205982540455	-0.590050914576164	0.605368269953087	0.534199565651114
344	9.141516	-4.77087890625	6.11029357910156	-4.15116760253906	0.639617434482366	0.742870642938831	-0.19756706548877	-0.503945679521647	0.21116039785334	-0.837526141962079	-0.580455243406123	0.635259391302535	0.509428322891722
345	9.141516	-3.91465942382813	6.57911865234375	-4.73974365234375	0.643050804786963	0.726389864969009	-0.242576640534788	-0.513535799948998	0.174022077188128	-0.840236454113883	-0.568125553582641	0.66488651717525	0.484932237168229
346	9.141516	-4.80261291503906	9.12861694335938	-2.00463134765625	0.641804845285595	0.70958402862084	-0.290821331566571	-0.529744524204574	0.13602809788692	-0.837178054932484	-0.554488304334009	0.691365939941711	0.46320174594372
347	9.141516	-3.44104431152344	9.95489868164062	-1.81841857910156	0.637089193960293	0.693686736936099	-0.336029864651897	-0.543900358408443	0.0956809836062498	-0.83367712545044	-0.546159096841014	0.713893451696461	0.438253785565761
348	9.141516	-2.25730590820313	11.8260076904297	-0.337098999023438	0.635643407816279	0.675435992844848	-0.373823056631613	-0.549777295993236	0.0561257820257772	-0.833423554624154	-0.541943154685132	0.735279617670509	0.407015357115966
349	9.141516	-3.34224975585938	14.1605529785156	0.335302734375	0.640421987531405	0.654732063588528	-0.401479268201277	-0.543569523044232	0.0171009141780333	-0.839189926269222	-0.542578889659182	0.755667574825984	0.366844196973082
350	9.141516	-2.87941223144531	14.638359375	0.402962036132813	0.642364618670396	0.633522998870476	-0.431296077634142	-0.54113030814213	-0.0235947745636528	-0.840607682705371	-0.542720633743033	0.773364012943096	0.327662047228713
351	9.141516	-2.09444458007813	18.3853674316406	1.84775756835937	0.646730156283458	0.606986868318322	-0.461851758297713	-0.541115480147866	-0.0616061862460365	-0.838688687750445	-0.537525945511394	0.792320402050417	0.288607412234591
352	9.141516	-1.66513732910156	16.9357818603516	3.74461303710938	0.661196458152319	0.578246000231436	-0.477965277968155	-0.533666631309984	-0.0852498292394549	-0.841387183905779	-0.527275232068682	0.81139634570966	0.252223709860765
353	9.141516	-5.67440002441406	16.9747009277344	-0.676593017578125	0.676765872350376	0.558522000936971	-0.479626029830739	-0.520049314097431	-0.0984458489950713	-0.848443943771438	-0.521091800864901	0.82362709358362	0.223834192621174
354	9.141516	-4.84332824707031	18.9128704833984	-1.72501281738281	0.684397583360187	0.54371186666285	-0.485775003412831	-0.508961794459845	-0.120798628199455	-0.852270839114741	-0.522070722863245	0.830533020099219	0.194054278112903
355	9.141516	-3.51828369140625	19.3888806152344	5.63847473144531	0.68907462416866	0.523961156138014	-0.500640458997608	-0.507277543392883	-0.144615826480632	-0.849562097024465	-0.517538072315556	0.839375344878464	0.166142631838004
356	9.141516	-6.44020751953125	17.4465197753906	6.86232971191406	0.694569190197667	0.526247410169924	-0.490547962300941	-0.492166902042107	-0.149761316973826	-0.857521596505033	-0.524733628198568	0.837039551770233	0.154981960917567
357	9.141516	-7.32097595214844	15.0425189208984	8.91067016601563	0.711373808208018	0.53786002539447	-0.452386889816981	-0.451958745785493	-0.142839841795116	-0.880528291256988	-0.538219840867675	0.830844975117865	0.141478020263816
358	9.141516	-6.38452331542969	11.2434191894531	6.04443054199219	0.714725440698443	0.543579278197138	-0.440101252819275	-0.438820037853504	-0.141463600042407	-0.887369722405093	-0.544614100805944	0.827350964329963	0.137425845551751
359	9.141516	-3.75658813476563	12.8109594726563	11.2637768554688	0.722688140690243	0.529572219691569	-0.444156633899151	-0.447334968204681	-0.131498530216963	-0.884646575063791	-0.526890194942928	0.838010382204018	0.141863743751814
360	9.141516	-9.81598754882813	15.2580706787109	5.4175341796875	0.727080353558914	0.523787818650879	-0.443847361715262	-0.452637905024435	-0.120372018976574	-0.883532401206993	-0.516210312182676	0.843301190607755	0.149566090795365
361	9.141516	-7.88560180664063	15.8945471191406	3.92723327636719	0.732351063399572	0.522281436149457	-0.436902759651593	-0.448848782159832	-0.112226192403819	-0.886532600918983	-0.512051453167699	0.845356364613293	0.152236415212149
362	9.141516	-8.36400695800781	16.6220343017578	2.11839477539062	0.73006770388595	0.537700576853857	-0.421757320498087	-0.445781527188188	-0.0930561798302005	-0.890291737248626	-0.517957505747782	0.837984866836173	0.171759672778849
363	9.141516	-7.1706884765625	17.6512939453125	-0.76401123046875	0.728545101379719	0.551791300447559	-0.405892098969675	-0.439837423401312	-0.0774275584267761	-0.894733487789388	-0.525133388989228	0.830380234559121	0.186288995440494
364	9.141516	-7.72393798828125	17.3004235839844	0.113763427734375	0.71919688441192	0.582644181509759	-0.378525559513504	-0.430263378440432	-0.0542932306390789	-0.901069181739004	-0.545554091383443	0.810911834208625	0.211642931644765
365	9.141516	-7.94368103027344	18.1614331054688	-1.53101623535156	0.703409866093318	0.6215943363869	-0.344724587539545	-0.413260043316253	-0.036939103629722	-0.909863527800341	-0.578299833028533	0.782467880232002	0.230896772442598
366	9.141516	-5.00379455566406	17.1573211669922	-1.67112487792969	0.685750926960062	0.657237985764185	-0.312704167292431	-0.40054608254053	-0.0179443640751801	-0.916100887216781	-0.607707579296861	0.753469461800924	0.25094873619641
367	9.141516	-3.67515747070313	14.7994244384766	-0.0820294189453125	0.667337887744045	0.691349879879076	-0.27693950092485	-0.385512520848817	0.00250995632744584	-0.922699190629332	-0.637212868553443	0.72251577402187	0.268199023934597
368	9.141516	0.413739624023438	10.9230853271484	-5.76121948242188	0.645572844657879	0.721080583316786	-0.251552170739707	-0.385082477100943	0.0229063152161061	-0.922597846601119	-0.659505260077686	0.692472449334084	0.292463192287712
369	9.141516	-0.0257464599609375	8.90588012695313	-4.53736450195313	0.629061401591086	0.744047153402582	-0.225112386469009	-0.383359481925874	0.0450106881582545	-0.922501786214556	-0.676252364613821	0.666609234458265	0.313552017836246
370	9.141516	-0.765807495117187	6.52343444824219	-0.978964233398438	0.612309401313021	0.766154717830527	-0.195151595970197	-0.381818523274911	0.0704151706552746	-0.921551039837596	-0.692309043959312	0.638786859670433	0.335647933949443
371	9.141516	-1.71603149414063	6.60247009277344	-3.56139404296875	0.588909551491294	0.790251037705473	-0.169377795379872	-0.387153265743355	0.0918779336955787	-0.917426179114203	-0.709434908209751	0.605856206294244	0.360056062729359
372	9.141516	1.61484191894531	6.04323303222656	-3.56319030761719	0.571136062318406	0.809554602599743	-0.135738512327928	-0.381338967777077	0.11524089363921	-0.917224142774246	-0.726900398936567	0.575622169346186	0.37453294672572
373	9.141516	0.911304931640625	5.32831970214844	-7.85506530761719	0.548614376920104	0.828920345744937	-0.109148182974621	-0.3872774644131	0.13624989355678	-0.911839970643713	-0.740971275417831	0.542519148893254	0.395770820159612
374	9.141516	3.16980834960937	7.54850280761719	-10.6638244628906	0.530445095105405	0.843761544786816	-0.0818196591143227	-0.391360637028204	0.158127296012713	-0.906549838696465	-0.751973970868339	0.512895909317548	0.414092904239893
375	9.141516	0.361049194335938	9.20286254882813	-12.1720880126953	0.513645401305585	0.856497613646903	-0.0507960582603129	-0.389358930880558	0.179926042759846	-0.903341708369724	-0.764570483775808	0.483775213248821	0.425903179590015
376	9.141516	1.829794921875	10.0249530029297	-15.1323321533203	0.499231041232906	0.866062320986826	-0.0265409803213785	-0.398790506864742	0.202468142384673	-0.894411976079179	-0.76924280893881	0.457102513104239	0.446455813501984
377	9.141516	1.78728332519531	11.5206427001953	-14.5407623291016	0.486988098945309	0.873407206701084	-0.00156293577760036	-0.407449764549311	0.225599360903288	-0.884923509535564	-0.772545973295017	0.431584035435324	0.465733764615597
378	9.141516	-0.526305541992187	11.0667864990234	-15.7454571533203	0.475859444611747	0.879190060008616	0.0241376750298107	-0.410093312407826	0.246073051356692	-0.878220660491647	-0.778062506545699	0.408010896641318	0.477646149497482
379	9.141516	1.26696533203125	10.8368646240234	-14.5096270751953	0.468324869634198	0.882001445219336	0.0523952966697754	-0.404220705255249	0.266608982311845	-0.874943010711893	-0.785670056655503	0.388578307657085	0.48138286310721
380	9.141516	0.417930908203125	12.2906414794922	-14.8299609375	0.460367838987443	0.884743792731479	0.0727315203274992	-0.402168769979181	0.280900015118714	-0.871410042379441	-0.791404911078687	0.371918812013353	0.485133655801276
381	9.141516	1.2597802734375	11.0410400390625	-13.9809265136719	0.454289909201727	0.886420519926272	0.0887656479226363	-0.401683197681646	0.292755738021444	-0.867723853858915	-0.795154882458591	0.358542521479891	0.489056206578658
382	9.141516	-0.404159545898438	10.7398663330078	-15.7676110839844	0.448629426445593	0.887407885762547	0.106013593531886	-0.393957324268794	0.302837158675532	-0.867806016331013	-0.802202757650502	0.347558483728676	0.485462497013058
383	9.141516	1.72980285644531	9.00287841796875	-19.62	0.445251713622655	0.888674106100307	0.109586699297452	-0.393811180734253	0.304270606333838	-0.867370827299335	-0.80415400604908	0.343041879758229	0.485446807886465
384	9.141516	1.48131958007813	7.711962890625	-19.62	0.441779509229561	0.890800822460058	0.106323844594579	-0.387494834071106	0.296363811895662	-0.872935418325365	-0.809122128478201	0.344445040177903	0.476108176262232
385	9.141516	1.61663818359375	7.64550109863281	-19.62	0.443250223262137	0.890936294991062	0.0988016085176015	-0.374739740631252	0.28429913250303	-0.882464803858855	-0.81430913440148	0.354127832181579	0.459884890059119
386	9.141516	0.607137451171875	9.93274475097656	-19.62	0.452993314986468	0.887937925000171	0.0797702822106094	-0.351840738627699	0.260273524041121	-0.899147255640104	-0.819149040907383	0.379241260979876	0.430314901846205
387	9.141516	-1.2597802734375	11.4314282226563	-19.3080487060547	0.470994633104485	0.880578437435068	0.0523991518174159	-0.322252375248277	0.227049760453635	-0.91902220480508	-0.821168351943507	0.415968775032886	0.390707711677188
388	9.141516	-1.53880004882813	13.2258966064453	-14.9251629638672	0.495531818857038	0.86849436861057	0.0128743229710617	-0.299292370593234	0.184642391181182	-0.936125666929167	-0.815397015818011	0.460026867770376	0.351429918368455
389	9.141516	-1.37653747558594	13.0678253173828	-11.7822985839844	0.523444419495266	0.851655220300201	-0.0262550078019462	-0.283029397712051	0.144726435419104	-0.948129009640373	-0.803679226887207	0.503723778102936	0.316799709033462
390	9.141516	0.412542114257813	11.0254724121094	-13.0055548095703	0.553862033484385	0.829709476167062	-0.0694192554203981	-0.274158879277565	0.103013028718432	-0.956151256249515	-0.78617667020703	0.548607784371344	0.284527225673313
391	9.141516	1.37294494628906	11.4667547607422	-11.9511474609375	0.574842076478619	0.80941513849633	-0.120015501843377	-0.281847214043205	0.0581647582518381	-0.957694632350829	-0.768191860830244	0.58434920592953	0.261566952200949
392	9.141516	2.28065734863281	9.26932434082031	-10.8200994873047	0.600141562569698	0.783913664504334	-0.159089507761475	-0.276648556524817	0.0168018978120273	-0.960824267180346	-0.750530266577662	0.620642459740953	0.22695210093225
393	9.141516	2.70337829589844	9.60762084960938	-13.0061535644531	0.623165280855648	0.757795339549209	-0.193419895805994	-0.264501937619338	-0.0285317126528823	-0.963963000518541	-0.736005270179309	0.651868211167405	0.182658362901044
394	9.141516	5.0726513671875	8.07001831054687	-10.4632415771484	0.649672072587233	0.722065475564732	-0.237797491781741	-0.273963965810999	-0.0694068312998306	-0.959232212347994	-0.709133233981682	0.688334323396992	0.152728241318646
395	9.141516	2.01181640625	6.32584533691406	-6.88987243652344	0.672694071870749	0.685338825135106	-0.27891464721736	-0.284052795799476	-0.108873843390607	-0.952607209412074	-0.683225215334192	0.720039707924355	0.121433620318909
396	9.141516	-0.326321411132812	4.67926940917969	-3.97872619628906	0.692188340176154	0.646376270499726	-0.321049869426928	-0.300503197241434	-0.146325540083496	-0.942489609898671	-0.656180714568676	0.748856830945768	0.0929533031903879
397	9.141516	-1.70764892578125	4.68525695800781	-3.11472290039063	0.708266531545076	0.609061296526804	-0.356935368612016	-0.31134333444442	-0.184286193513517	-0.932257436000019	-0.633580183078778	0.771416188547652	0.0591034318502334
398	9.141516	-2.62793518066406	4.56131469726563	-2.11779602050781	0.719394449747787	0.569462945906668	-0.39772299268634	-0.332501699870229	-0.220396369369016	-0.916988582236641	-0.609847723005906	0.791920067688814	0.0307954726584421
399	9.141516	-4.73136108398438	5.58638305664063	-0.947828979492188	0.730411907905032	0.53008071004449	-0.430712068125866	-0.34680486169516	-0.255434471341733	-0.902485245727026	-0.588408729281893	0.808559009404446	-0.00273781222317687
400	9.141516	-6.56474853515625	6.60187133789063	2.38005065917969	0.72700893604689	0.499904572092185	-0.470694620438027	-0.369649328781394	-0.292743790289355	-0.881850580868713	-0.578634064534257	0.815105203055625	-0.0280379619839718
401	9.141516	-2.70936584472656	6.86053344726563	3.28357177734375	0.725498912011624	0.469056740311836	-0.503623969880294	-0.385888008225224	-0.328676381801475	-0.862010603852332	-0.569861188165961	0.819730205868935	-0.0574509861373365
402	9.141516	-4.46252014160156	8.54842346191406	4.71938598632812	0.725539254921502	0.441170843982555	-0.528167658975512	-0.395582684291047	-0.360652439357885	-0.844656236509443	-0.563122659335462	0.821765236795112	-0.0871479554437764
403	9.141516	-3.88771545410156	9.60821960449219	3.84879638671875	0.730907919605605	0.416834858060248	-0.540390890156098	-0.393930218837436	-0.388915253193487	-0.832804844198289	-0.557308348891793	0.82157995772739	-0.120057391759793
404	9.141516	-4.51640808105469	10.8524322509766	5.38759643554688	0.734975409826148	0.388281527973532	-0.555921399107307	-0.398268982454569	-0.416341676975396	-0.817338011857957	-0.548810499685901	0.822129590178978	-0.151360405610773
405	9.141516	-4.96966552734375	10.6045477294922	3.9517822265625	0.740867357107981	0.364224680587135	-0.56431900661154	-0.396850761615168	-0.440466905957499	-0.805293969778546	-0.541871785736531	0.82056644265253	-0.181784710620216
406	9.141516	-5.03971984863281	12.7606640625	6.22106323242188	0.742626464641293	0.335679514347666	-0.579504268889963	-0.404221906354265	-0.46524330628818	-0.787498137380252	-0.533957474371975	0.819065277985435	-0.20981297853313
407	9.141516	-7.39462280273438	10.3734283447266	7.82991760253906	0.752821324427875	0.312789492027154	-0.579156962458413	-0.399694007262251	-0.481853515839565	-0.779783232592041	-0.522976819797306	0.818523013085426	-0.237729516476712
408	9.141516	-6.96172302246094	10.2925964355469	6.08394836425781	0.753331439931464	0.290809393418178	-0.58984882665861	-0.40619662392091	-0.499621228631536	-0.765103215661762	-0.517200197530939	0.815970909163106	-0.258254585774371
409	9.141516	-11.0661877441406	11.3158685302734	7.49700988769531	0.751300122350072	0.279438144364768	-0.597881635134197	-0.408128397703097	-0.515206898138114	-0.753653145086787	-0.518632179048957	0.810232173876647	-0.273028363490047
410	9.141516	-10.3039727783203	11.6924853515625	6.5767236328125	0.743862902835782	0.265699128243069	-0.613247058725599	-0.414659815780617	-0.536133913857396	-0.735267069566383	-0.524142365165715	0.80122680912637	-0.28863537790033
411	9.141516	-13.1025531005859	11.1057055664063	13.7528009033203	0.735954338692744	0.271146534479098	-0.620363416232212	-0.412225814981955	-0.547408997094717	-0.728294766809579	-0.537067117613608	0.791721508322043	-0.291094425296122
412	9.141516	-10.1159637451172	10.3087628173828	14.6521307373047	0.723853070846192	0.282424453363685	-0.629502311329165	-0.414769165969477	-0.550992458361919	-0.724136623703893	-0.551364916173964	0.785266667426112	-0.281696628027327
413	9.141516	-10.2770288085937	14.08271484375	5.64805480957031	0.70668658139136	0.299553004240166	-0.640985236438473	-0.417733224138017	-0.554544694404013	-0.719707673545043	-0.571045557843375	0.776368584860987	-0.266756052055615
414	9.141516	-5.83786010742188	13.6318524169922	2.39561828613281	0.696077168734324	0.306474632295938	-0.649268723200091	-0.415474614927224	-0.565573309790544	-0.712395729636025	-0.585540280013153	0.765637075259316	-0.266350238352585
415	9.141516	-5.67020874023438	11.419453125	5.92587707519531	0.693465823156148	0.317747415055418	-0.646638795882189	-0.410417830502119	-0.56343913382881	-0.717003170757406	-0.59216750714667	0.762609285739323	-0.260316578004282
416	9.141516	-1.38671630859375	6.87969360351563	4.72357727050781	0.690550781084704	0.320998100079647	-0.648151092329992	-0.414181689527802	-0.559149556932171	-0.718195865375492	-0.592952904372009	0.764403030297378	-0.253169627856474
417	9.141516	-0.916094970703125	5.73247924804688	9.27471313476562	0.698644850033983	0.323343898419459	-0.638235142307206	-0.423504418295857	-0.532091939969399	-0.733159038069837	-0.576662276557849	0.782513188882148	-0.234805723994564
418	9.141516	-1.47114074707031	5.97617248535156	8.56458984375	0.714320603138343	0.324772744518979	-0.619894136405309	-0.428772400728379	-0.496953282813077	-0.754447919392007	-0.553082547460772	0.804711189880515	-0.21573037935207
419	9.141516	-1.91960815429688	6.02706665039063	7.84788024902344	0.729298947393593	0.325083124118153	-0.602033228106373	-0.441437210928417	-0.448705073402349	-0.777043722007155	-0.522739164534607	0.832457037640126	-0.183736350091883
420	9.141516	-2.82372802734375	7.18146606445312	4.41282348632812	0.730229945823453	0.316520135706895	-0.605457867993113	-0.475929804285191	-0.400131979419094	-0.783189134525766	-0.49015818631921	0.860063603891158	-0.141546987414132
421	9.141516	-6.50247802734375	5.79774353027344	5.02175720214844	0.74030684734591	0.30664576357164	-0.598259264413286	-0.495197802844686	-0.353128166576405	-0.793775556456724	-0.454670108793788	0.88389415296966	-0.109572891334912
422	9.141516	-6.92280395507813	3.69671264648438	5.01277587890625	0.742035372916937	0.29948376397715	-0.599744095805954	-0.516245325806348	-0.315430893094439	-0.796237474165052	-0.427638011550798	0.900451457212283	-0.0794537870787591
423	9.141516	-2.90695495605469	3.12909301757813	4.94511657714844	0.759219667790569	0.293113143313785	-0.581093952177005	-0.515850575534845	-0.27339602062908	-0.811882257242116	-0.396842134557745	0.916154627298742	-0.0563650522820301
424	9.141516	-5.19180358886719	3.14945068359375	4.88344482421875	0.765512403325065	0.292767248993586	-0.572955581412915	-0.522235588388574	-0.237448822216107	-0.819077558628378	-0.375846711540654	0.926231825594927	-0.0288765420222884
425	9.141516	-5.04271362304688	2.55368957519531	2.51716552734375	0.777879974084961	0.289116510096361	-0.557955544382599	-0.521995514863027	-0.197080624012458	-0.829867405132738	-0.349890594872833	0.936787527259283	-0.00238754915630734
426	9.141516	-7.97960632324219	1.36396362304688	1.65675476074219	0.784413349708547	0.281015697873777	-0.552924836074065	-0.525853485502398	-0.171409821231831	-0.833124711534984	-0.328897869533987	0.944271597970513	0.0133169321624102
427	9.141516	-7.58143432617188	1.21247863769531	3.573369140625	0.794970385719966	0.267545936101638	-0.544464193408297	-0.52619300877674	-0.142536622700939	-0.838334198696136	-0.301898995266184	0.952944113400418	0.027468407175524
428	9.141516	-9.53936279296875	-2.15432006835938	3.6931201171875	0.802532541871186	0.256163610348456	-0.538815111119777	-0.528483055747915	-0.11385812340901	-0.841274026415368	-0.276852269315458	0.959904439237065	0.0440032783762548
429	9.141516	-9.28608947753906	-2.26449096679687	3.63444213867188	0.804424202442373	0.247273585944008	-0.540145791633467	-0.531091231360985	-0.108038667358205	-0.840398566352262	-0.26616499863135	0.962903640064703	0.0444159144194892
430	9.141516	-7.89338562011719	-3.2236962890625	7.42695556640625	0.807876194090844	0.242181621258981	-0.537293325238332	-0.53003399423061	-0.100042042831176	-0.842054365600055	-0.257682013305623	0.965059403348072	0.0475429072336186
431	9.141516	-5.288203125	-2.47884521484375	4.51042053222656	0.811186244295144	0.237308407764817	-0.534473195464905	-0.526889154028777	-0.0999191949958198	-0.844040267900902	-0.253701983502649	0.966281984761961	0.0439821496894672
432	9.141516	-6.23902587890625	-3.69791015625	5.82049621582031	0.813129285194173	0.22742363974835	-0.535816436518353	-0.526207877802473	-0.106335609624527	-0.843681223842511	-0.248849422137627	0.967972740426812	0.0332075125894157
433	9.141516	-8.27060119628906	-2.91773254394531	9.41781555175781	0.810765446013093	0.225112999319078	-0.54035500283495	-0.528635345120169	-0.114878627967399	-0.841039578572856	-0.251404183419588	0.96753658244735	0.0258630660447164
434	9.141516	-7.9370947265625	-2.85306701660156	3.88053039550781	0.80709294147726	0.221027886092752	-0.547492152808563	-0.531446454031363	-0.132027515853652	-0.836739745413712	-0.257226846023262	0.966289505596994	0.0109060101797814
435	9.141516	-5.08342895507813	-1.08614135742188	6.32464782714844	0.802703040987423	0.218088239280894	-0.555072380754891	-0.53420701778847	-0.150827902178746	-0.83178952029339	-0.265123914679707	0.964203538580791	-0.00456574782364888
436	9.141516	-7.94847106933594	-1.45018432617187	5.97856750488281	0.800617076518845	0.216821116931943	-0.558570407414144	-0.532470425169194	-0.170008917291621	-0.829199743343827	-0.274749964707107	0.96129369668885	-0.0206612100257408
437	9.141516	-4.19308044433594	-0.817300415039063	8.25982360839844	0.801810992046338	0.216212376619417	-0.557091860674926	-0.528797381017192	-0.1775058051611	-0.829978926818909	-0.278338755589348	0.96007494360112	-0.0279935672303553
438	9.141516	-5.21036499023438	-0.920286254882813	7.93290344238281	0.799915860387686	0.216238141626508	-0.55979968060561	-0.527763253968574	-0.190547894429527	-0.827742380024713	-0.285658124443767	0.957565959103804	-0.0382997376607337
439	9.141516	-5.3217333984375	-0.61552001953125	8.66697692871094	0.793816211825214	0.214704803374318	-0.568997073148415	-0.532699562792854	-0.205906749422123	-0.820873672584714	-0.293405858230148	0.954727321254823	-0.0490789609284882
440	9.141516	-5.14090942382813	0.271235961914063	7.56706420898438	0.796172434739319	0.220336287153369	-0.563525842109067	-0.525835619863365	-0.20879701738196	-0.824560917346504	-0.299343206109935	0.952814633649098	-0.0503777615616184
441	9.141516	-5.3408935546875	0.697549438476563	7.34851867675781	0.792352097118005	0.222818856663784	-0.567917169407426	-0.526098388127577	-0.221741959725879	-0.821006083598954	-0.308866702967906	0.949306199501494	-0.0584730654726098
442	9.141516	-4.71639221191406	0.937650146484375	7.21080505371094	0.788841102097362	0.225613399781358	-0.57168899716622	-0.526242854162655	-0.232565503622442	-0.817913042424183	-0.317487281768204	0.946050675367835	-0.0647297887490728
443	9.141516	-4.64214660644531	2.38663696289063	8.57476867675781	0.786915529854802	0.233058358183381	-0.571356062848907	-0.521998728961909	-0.242349590050133	-0.817792151567062	-0.329061203783565	0.941780482853303	-0.0690524893187202
444	9.141516	-3.19076477050781	2.50758544921875	6.61803771972656	0.779045149908984	0.237251270843198	-0.580345146345325	-0.524780618626632	-0.259741661337544	-0.810641456921284	-0.343065528313671	0.936080180245742	-0.0778456128112676
445	9.141516	-0.541873168945313	3.76616821289063	8.50890563964844	0.775650005199702	0.244905811424631	-0.581711451635728	-0.522536238721445	-0.267768004480617	-0.809478952783402	-0.354009814350601	0.93183766789442	-0.0797220925248539
446	9.141516	-0.291593627929688	3.056044921875	8.31910034179688	0.775485192176041	0.248405713520043	-0.580445792651034	-0.519147816447676	-0.272331861340367	-0.810136347769004	-0.359316380635922	0.929585907159467	-0.082230042060136
447	9.141516	-2.00103881835938	2.29023742675781	6.61564270019531	0.775909639972849	0.246527623188511	-0.580679224359051	-0.516873008824242	-0.279286970220709	-0.809222516378476	-0.361671844834762	0.928020969197335	-0.0892779781573237
448	9.141516	-5.00738708496094	1.47533203125	9.09987670898438	0.772419665038608	0.251862159846189	-0.583038003477696	-0.514433085990769	-0.29025326749345	-0.806914890646709	-0.37246001275259	0.923210968926923	-0.0946311035196766
449	9.141516	-1.03165466308594	1.54897888183594	9.31782348632813	0.77052140154517	0.256754665588233	-0.583415642110788	-0.511162785094216	-0.297908766270188	-0.80620281202319	-0.380800967561262	0.919416885138646	-0.0983016501710827
450	9.141516	-2.13396240234375	1.57472534179688	7.71735168457031	0.770851943587546	0.262860543033532	-0.580251338631303	-0.504844206039022	-0.303418478660969	-0.808127189516535	-0.388483730284979	0.915882941059162	-0.101187101849434
451	9.141516	-1.44778930664063	1.52502868652344	7.89757690429688	0.769813090017476	0.263810177081582	-0.581198758520637	-0.501615477598406	-0.313007114117286	-0.806479050655187	-0.394676727299025	0.91237642285416	-0.108625705743983
452	9.141516	-1.29271179199219	2.05313049316406	9.06455017089844	0.766227589751017	0.266689961308739	-0.584612474414881	-0.500967049963571	-0.321822423731745	-0.803406710473731	-0.402401907991431	0.908463974035607	-0.112986336892068
453	9.141516	0.1963916015625	2.45908630371094	8.6364404296875	0.767643549159979	0.265290314065783	-0.583390461608647	-0.497154897379223	-0.327942061155905	-0.803300076270799	-0.404425999961582	0.906683546662062	-0.119852228879482
454	9.141516	-2.66565673828125	3.16142578125	7.73651184082031	0.762691761355223	0.263514098589515	-0.59064506855253	-0.499260172747719	-0.340662813045018	-0.796673162417419	-0.411145420829157	0.902501616426702	-0.128258626526269
455	9.141516	1.12027038574219	2.66026794433594	9.97645385742188	0.755018522750075	0.261933698448644	-0.60111377285944	-0.504791852111743	-0.352901265812569	-0.787810816522268	-0.418488012188989	0.898249093628767	-0.134224995620068
456	9.141516	3.97333740234375	2.02558776855469	11.8146313476563	0.759412994324871	0.259972274460823	-0.596411200902699	-0.500123503653512	-0.353066200210437	-0.790709010548317	-0.416135056374573	0.89875395675381	-0.138104815540593
457	9.141516	4.64035034179688	2.76564880371094	13.4210906982422	0.761943525777314	0.253311869270103	-0.596049629152575	-0.503094243348911	-0.348068301373479	-0.791040226466498	-0.407845860387502	0.902597116362482	-0.137768645558089
458	9.141516	5.45226196289063	5.53668640136719	13.0133386230469	0.772487287180975	0.242071217567847	-0.587081695140463	-0.502784953468095	-0.331577272310032	-0.798288045165105	-0.387905506160798	0.911843209171763	-0.134429461716829
459	9.141516	3.91705444335938	6.02646789550781	11.9786901855469	0.777684803389403	0.227453301242237	-0.586064281739805	-0.512301664690047	-0.311014696513983	-0.800510376514959	-0.364353332539985	0.922786461921892	-0.125346698244047
460	9.141516	1.11308532714844	6.15041015625	10.1944006347656	0.790554992193063	0.210736207294844	-0.574989613170196	-0.512584803473465	-0.286042610100645	-0.809590294195082	-0.335081517793352	0.934756586573101	-0.118112235994028
461	9.141516	-0.675994262695312	5.48579223632813	9.3166259765625	0.799831241574893	0.192566581815817	-0.568496347014243	-0.516783933421806	-0.260812721457318	-0.815420805770318	-0.305293876712018	0.945988813831221	-0.109090847225364
462	9.141516	-1.51125732421875	4.88883361816406	8.86396728515625	0.809120448068819	0.176447940776637	-0.560526738624125	-0.519487764977443	-0.231107691149208	-0.822630960474029	-0.274693579385566	0.956794313991971	-0.09533141222587
463	9.141516	-2.54171447753906	4.40863220214844	8.35083435058594	0.816055135891536	0.15521667125627	-0.556742130747413	-0.525117777361357	-0.203318892863278	-0.82638535061067	-0.24146497693064	0.966731199852872	-0.0844123933253379
464	9.141516	-2.90695495605469	4.60382629394531	8.38675964355469	0.823067372513282	0.138583364804857	-0.550776498503201	-0.528004173875518	-0.170528690831509	-0.831944444042584	-0.20921685561664	0.975558617717385	-0.0671840064541415
465	9.141516	-4.41881103515625	3.61408447265625	6.57792114257813	0.829797770406295	0.120249229348372	-0.544954844982467	-0.529210864290427	-0.140370688622825	-0.836798620274038	-0.177120076066268	0.982769653894887	-0.0528420858559067
466	9.141516	-4.29067749023438	1.95253967285156	6.09472595214844	0.836485753327165	0.0990104702433318	-0.538969861182311	-0.528766526848376	-0.112379999746228	-0.841294654530589	-0.143866412221168	0.988720214438459	-0.0416508462744389
467	9.141516	-5.47202087402344	1.66274230957031	6.88208862304687	0.841020636971049	0.0853663466698055	-0.534225490822987	-0.527885158122014	-0.0866448907193254	-0.844884561787427	-0.118412617669348	0.992575060017371	-0.027806513772965
468	9.141516	-5.11037292480469	0.60114990234375	6.91502014160156	0.845027377286216	0.0727696708072894	-0.529748342750951	-0.525981041366588	-0.0652895490997084	-0.84798656764201	-0.0962947338108398	0.995209450210837	-0.0168959892088043
469	9.141516	-3.60151062011719	0.132324829101563	6.38093078613281	0.847680404497596	0.058225781183824	-0.527302275963537	-0.52544780772241	-0.0447965977767528	-0.84964572981175	-0.0730926343108944	0.997297860838557	-0.00737858904754887
470	9.141516	-4.38707702636719	-0.0293389892578125	7.71256164550781	0.850628949024204	0.042907128225922	-0.524012756933821	-0.523438094116077	-0.0245830798264591	-0.851709007710013	-0.0494262350387734	0.998776576884766	0.00154814606601174
471	9.141516	-5.55464904785156	-0.599353637695313	7.49102233886719	0.852381556555249	0.028735406254873	-0.522130212180657	-0.522165957717218	-0.00684185447366017	-0.85281645248472	-0.0280783661510294	0.999563637521258	0.00917278036148615
472	9.141516	-4.70082458496094	-0.250279541015625	6.70006713867188	0.854646391193621	0.0183167684584262	-0.518887311478092	-0.519110495503938	0.0105304536518587	-0.854642266099415	-0.0101901657188702	0.999776777855501	0.0185082409616773
473	9.141516	-3.79790222167969	-0.0910107421875	6.99465454101563	0.858238141015499	0.00585948107161116	-0.513218237972728	-0.513153755715011	0.0293286890518563	-0.857795459881946	0.0100257818567514	0.999552647177762	0.0281778142887251
474	9.141516	-3.3386572265625	-0.373623046875	5.83845886230469	0.859400569508003	-0.00761851568080946	-0.51124614360222	-0.510425053739699	0.0457835782070063	-0.858702584415226	0.0299487169031615	0.998922330406816	0.0354577519094216
475	9.141516	-5.04091735839844	-0.199385375976563	8.38137084960938	0.86172574884137	-0.0206064319685555	-0.506955726612597	-0.504989834084626	0.0619233285754031	-0.860901137674544	0.0491324867573565	0.99786816581133	0.0429548880265125
476	9.141516	-4.96128295898438	-1.12506042480469	5.78876220703125	0.862282247642192	-0.0332745471637292	-0.505333681751157	-0.502103518733663	0.0739513001755678	-0.861639867739195	0.0660407592052417	0.996706581554166	0.0470596261162733
477	9.141516	-5.57321044921875	-1.66393981933594	6.98806823730469	0.862774331738839	-0.0440531992965487	-0.503666326176705	-0.498935474670433	0.0869007422439575	-0.862271217838587	0.0817547833951637	0.995242471274808	0.0529960259153648
478	9.141516	-5.8677978515625	-1.41545654296875	5.51752624511719	0.860765167508574	-0.0542857715529463	-0.506099181397124	-0.500321766157117	0.0926093573125452	-0.860872602216832	0.0936026533457261	0.994221585937993	0.0525545558594225
479	9.141516	-4.1433837890625	-0.971180419921875	10.0770446777344	0.864817605993479	-0.0639503670660947	-0.497996846291038	-0.489812495831905	0.110508488638725	-0.86479569429184	0.110336880917615	0.991815620209168	0.0642459976844893
480	9.141516	-5.35885620117188	-1.41725280761719	7.73232055664063	0.868613500430959	-0.0735440332454475	-0.490001900040264	-0.479225515621842	0.126605090514562	-0.868512553871721	0.125910651042936	0.989223142789225	0.074726713591273
481	9.141516	-7.38025268554688	-2.72672973632813	5.39059020996094	0.876525703309573	-0.0838460412163919	-0.47399634261247	-0.459273481599434	0.149151688062648	-0.875683529048935	0.144119951905324	0.985253071713254	0.0922270250111406
482	9.141516	-11.3835278320313	-4.7565087890625	2.82013549804688	0.874390954413443	-0.0905504818131306	-0.476698090077313	-0.461611732565686	0.147490506611838	-0.874734907738961	0.149516110160926	0.984909722107967	0.0871652000488308
483	9.141516	-11.1021130371094	-4.12003234863281	7.39641906738281	0.877571618985461	-0.0875102242363925	-0.471391572055901	-0.455537709660375	0.154412000026182	-0.876722492767976	0.149510697371852	0.984123414466911	0.0956433817332474
484	9.141516	-9.46811096191406	-3.56498657226563	5.55105651855469	0.878126495318868	-0.0832876866931798	-0.471123146814398	-0.456748607608476	0.147130969706293	-0.877344394864984	0.142388790523415	0.985604199970041	0.0911580678530127
485	9.141516	-7.94787231445313	-2.55548583984375	6.94196411132812	0.878902824614127	-0.0783588274595747	-0.47052068928419	-0.45721032169249	0.142794194850511	-0.8778203344961	0.135972595118129	0.986645687202937	0.089675756482376
486	9.141516	-7.61915588378906	-2.62554016113281	6.5096630859375	0.879330019216529	-0.0728039828634938	-0.470614807867189	-0.458845356057524	0.13492474343878	-0.878211963498803	0.127434910951053	0.988177561821352	0.0852376078014018
487	9.141516	-6.5863037109375	-1.33043334960937	5.85462524414063	0.878375200173395	-0.0661808775155907	-0.473367826506634	-0.463726098276895	0.12199241084973	-0.877539718458349	0.115823630996599	0.990322141096692	0.0764653081889209
488	9.141516	-5.9061181640625	-0.31853759765625	7.5443115234375	0.878371659848358	-0.0567555202546377	-0.474596711004056	-0.466967961391282	0.109994600713441	-0.877406468432939	0.102000736317499	0.992310434659697	0.0701131304120124
489	9.141516	-4.99720825195313	-0.092208251953125	7.72094421386719	0.878629111920323	-0.0452329934513657	-0.475357612739644	-0.469452901796005	0.100218683485125	-0.877251496707654	0.0873204253391772	0.993936714174468	0.0668202928356963
490	9.141516	-4.21822814941406	0.0532891845703125	8.31790283203125	0.878856720920201	-0.0361552389522126	-0.475713845488757	-0.471196018946446	0.0904158585431025	-0.877382062873942	0.0747340338962993	0.995247592923601	0.0624263803000357
491	9.141516	-4.16673522949219	-0.0329315185546875	8.200546875	0.881843893009957	-0.0240129180454673	-0.470929642439278	-0.467605997717889	0.0842275287003707	-0.879914969930212	0.0607945660343235	0.996157167908744	0.0630469473069742
492	9.141516	-4.02483032226563	-0.338296508789063	7.09285034179688	0.883868084490563	-0.0149621146993691	-0.467496892334813	-0.46525108809786	0.074771379156522	-0.882015116584058	0.04815219873217	0.997088449428011	0.0591268955256662
493	9.141516	-3.515888671875	-0.320333862304688	7.43294311523438	0.887659101442638	-0.00293113461054895	-0.460491832800479	-0.459164707898635	0.0704957648923827	-0.8855496136031	0.0350583891017552	0.997507772191341	0.0612303337526196
494	9.141516	-3.59851684570313	-0.1580712890625	11.0176885986328	0.88629816928797	0.00954067132722314	-0.463016771518506	-0.46277511900317	0.0565452213509942	-0.884670462474005	0.0177410357193695	0.998354452853791	0.054531111474195
495	9.141516	-5.00798583984375	-0.199984130859375	6.89705749511719	0.89062784498597	0.0231530047729936	-0.454143127335017	-0.454729263258837	0.0493595922203749	-0.889260888486565	0.00182725797937611	0.998512678450214	0.0544893760512705
496	9.141516	-3.26141784667969	0.863404541015625	7.12099182128906	0.891649414070406	0.0388432871926474	-0.451057115483141	-0.452355287988423	0.0360991707030174	-0.891106920242159	-0.0183307342136853	0.998593034681609	0.0497587707702201
497	9.141516	-1.86991149902344	1.50347351074219	6.77072021484375	0.893506625494049	0.0515355484578752	-0.446082949061477	-0.447635376967294	0.023431466618188	-0.893909131656831	-0.0356157196415609	0.998396240786827	0.0440053053295508
498	9.141516	-2.54111572265625	2.22317687988281	7.26409423828125	0.894276631345389	0.0636969970330704	-0.442958236404419	-0.444226914346356	0.006591640624419	-0.895890059574384	-0.0541456849606625	0.997947515074239	0.0341906706177747
499	9.141516	-0.123942260742188	2.55907836914063	7.65029113769531	0.896108298244905	0.0753617855996416	-0.437390579560023	-0.437958382268366	-0.00970016062174579	-0.898942913807539	-0.0719887020128515	0.997109075354921	0.0243129312786196
500	9.141516	-0.48139892578125	3.15424072265625	7.51856506347656	0.900333437598502	0.0818283058730307	-0.427438685076602	-0.426906437344536	-0.0247801262223707	-0.90395621525503	-0.0845611902462382	0.996338332948378	0.0126226543082828
501	9.141516	-1.24720642089844	3.76556945800781	8.79331420898438	0.900039195633488	0.0928728813295127	-0.425798161382808	-0.423756589905533	-0.0416868853894942	-0.904816310694142	-0.101783097000727	0.994804921328839	0.00183566469246979
502	9.141516	0.739462280273438	4.66250427246094	9.78545104980469	0.901050141454415	0.101818963575301	-0.421594047919834	-0.418094463130362	-0.0546136077082922	-0.906760372839936	-0.115350173318961	0.993302699336681	-0.00663965403838718
503	9.141516	0.707728271484375	4.7948291015625	9.1441845703125	0.902653871212376	0.109331093327607	-0.416248364341654	-0.411149564361744	-0.0667243645732759	-0.909122596186807	-0.127169275025299	0.991763364520026	-0.0152775745934145
504	9.141516	1.44719055175781	4.8906298828125	9.55193664550781	0.903778095513178	0.113055788697955	-0.412799639913187	-0.406466830052527	-0.0753598736840309	-0.910552362857501	-0.134051744254312	0.990726641450714	-0.0221551750651211
505	9.141516	0.718505859375	4.65711547851563	11.1931237792969	0.906020293631922	0.119742211487797	-0.405942151439264	-0.398534024446145	-0.0814968008170161	-0.913525534845825	-0.142470554452089	0.989454432626689	-0.0261164099659818
506	9.141516	2.12677734375	4.90320373535156	11.3972991943359	0.907586552752441	0.122433603460991	-0.401617556895236	-0.393357926625646	-0.0865409907634508	-0.915303336866229	-0.146820267074112	0.988696449705994	-0.0303832110720591
507	9.141516	6.74736877441406	5.43908935546875	14.2282122802734	0.910179118517826	0.115476218916447	-0.397792929900565	-0.390918177072764	-0.0780599458672863	-0.917109384798402	-0.136956018663736	0.990238298449397	-0.0259067797269628
508	9.141516	8.10714111328125	6.02886291503906	13.1833850097656	0.916410595369262	0.0981662145640604	-0.388014194344895	-0.383662948618617	-0.0606542215682372	-0.921479140981075	-0.113992817985271	0.993319918115062	-0.0179214319646321
509	9.141516	5.70254150390625	7.44072692871094	13.4091156005859	0.919169147475427	0.0699913948248502	-0.387594224647078	-0.385724459793321	-0.0390526446899248	-0.921787140320298	-0.0796537472216369	0.996782872843025	-0.00889859316730247
510	9.141516	0.159867553710937	8.23048461914063	12.0571270751953	0.925004240223957	0.0428535253203762	-0.377532423687445	-0.377709366710047	-0.00420140494938388	-0.9259146734424	-0.0412648744963052	0.999072531683294	0.0122998605169743
511	9.141516	-3.06023620605469	7.78680725097656	9.48607360839844	0.929043704645418	0.0134767912976086	-0.369724452741549	-0.36996980687836	0.0328427321462001	-0.928463083242173	-0.000369942031097914	0.999369666860814	0.0354983394174991
512	9.141516	-3.33925598144531	6.37733825683594	7.06231384277344	0.934016918143509	-0.0128306522428354	-0.356998278685942	-0.35531592777957	0.069913102834349	-0.932128075705381	0.0369186685546149	0.997470567192385	0.0607410857415088
513	9.141516	-4.19667297363281	4.81638427734375	7.49581237792969	0.93651931627938	-0.0393584918980042	-0.348399884258187	-0.342911750454852	0.10434339246627	-0.933554491097665	0.0730965227325678	0.993762227881572	0.084223113218774
514	9.141516	-4.905	3.50271606445312	5.9444384765625	0.937999866612555	-0.0647976269276967	-0.340525355560154	-0.329892042514925	0.1347533199841	-0.934351530762696	0.10643068411018	0.988758216298505	0.105022374673386
515	9.141516	-5.61272827148438	2.71415588378906	7.01800598144531	0.938231226919215	-0.0862063994881952	-0.335097928255229	-0.318507734526574	0.163201385517774	-0.933765565231353	0.135185013520043	0.982819293895048	0.125663231166579
516	9.141516	-4.96248046875	1.91182434082031	5.53548889160156	0.935687941927622	-0.10911387332891	-0.33553276736917	-0.312694039715306	0.184052330844756	-0.931851477992676	0.163433512040137	0.976841288110702	0.13809628881491
517	9.141516	-5.77319458007813	1.12326416015625	7.79279479980469	0.93324253258761	-0.127962176987026	-0.335684459917651	-0.306567006312143	0.203457928434022	-0.929850279345093	0.187283330839331	0.970685609565774	0.150646610886698
518	9.141516	-4.01046020507813	1.17056579589844	6.3372216796875	0.931669868114629	-0.146076792241079	-0.332645197794628	-0.296167855095733	0.224920718976503	-0.928275428837307	0.210418294012815	0.963365061097635	0.166288606347781
519	9.141516	-3.822451171875	0.929267578125	7.424560546875	0.929297668981078	-0.165343403057276	-0.330253541225185	-0.28617964979613	0.242885653416508	-0.926880665138183	0.233467450555533	0.955859884308299	0.178395154365875
520	9.141516	-3.02131713867188	1.52023864746094	6.55097717285156	0.928021594587227	-0.184894338889605	-0.323403777693393	-0.269364534357576	0.266633353891751	-0.925391485925153	0.257329880911852	0.945896790373565	0.197637532748413
