// Start Time: Unknown
// Update Rate: 100.0Hz
// Filter Profile: human (46.1)
// Option Flags: AHS Disabled ICC Disabled 
// Firmware Version: 4.0.2
PacketCounter	SampleTimeFine	Acc_X	Acc_Y	Acc_Z	Mat[1][1]	Mat[2][1]	Mat[3][1]	Mat[1][2]	Mat[2][2]	Mat[3][2]	Mat[1][3]	Mat[2][3]	Mat[3][3]
1	0.0001	-9.13879577636719	3.60869567871094	-0.188009033203125	0.361776866837985	0.932056919459411	0.0196824162318452	0.0262406936075113	0.0109233544068681	-0.999595971544253	-0.931895339949658	0.362147178942947	-0.0205060031156175
2	0.0001	-9.072333984375	3.20872741699219	-0.108973388671875	0.359798956904375	0.932841977256613	0.0187231428583921	0.0252171647465004	0.0103373119761349	-0.999628548303447	-0.932689018490446	0.360137453549447	-0.0198042757567226
3	0.0001	-9.07053771972656	3.1278955078125	-0.0383203125	0.357744091327647	0.933651191876856	0.0177374470283184	0.0244469913926565	0.00962410527237351	-0.99965480102361	-0.933499603498579	0.35805422564834	-0.01938199585605
4	0.0001	-9.13101196289062	3.26620788574219	-0.147892456054688	0.356337408028304	0.934207373847536	0.0167401997766012	0.0236103936725711	0.00890766078444244	-0.999681550740022	-0.934058992221742	0.356619175351298	-0.0188828711128354
5	0.0001	-9.00647094726563	2.85426452636719	0.0239501953125	0.354885592921061	0.934786042356412	0.0152075952307509	0.0221970002576158	0.00783707206948259	-0.999722898347808	-0.934646194619456	0.355124816532178	-0.0179681820548576
6	0.0001	-9.13699951171875	3.22130126953125	0.164657592773438	0.353361742644998	0.935385115484966	0.013790016826229	0.0212397639964944	0.00671517520377302	-0.99975185863661	-0.935245610126166	0.353566955683305	-0.0174944730865625
7	0.0001	-9.18430114746094	3.07221130371094	0.0940045166015625	0.351307035366195	0.93617472597611	0.0126589630606697	0.020161765520868	0.00595315734634011	-0.999779007145425	-0.936043198849977	0.351484626066584	-0.0167835492532818
8	0.0001	-9.23220153808594	3.37458251953125	0.286803588867188	0.349097878390609	0.937008186206024	0.0120967055876063	0.0185800188035889	0.00598517242981056	-0.999809462153787	-0.936902051553114	0.349256119050022	-0.0153202187217757
9	0.0001	-8.88432495117187	2.81654296875	0.0760418701171875	0.344900884274063	0.938559257124571	0.0122434020085155	0.0179159508043353	0.00645878687165252	-0.99981863494282	-0.938468112795392	0.345057683493528	-0.0145875401742269
10	0.0001	-9.10646301269531	2.63691650390625	0.12693603515625	0.34013584606957	0.940300808381213	0.0119162064506738	0.0174332617063079	0.00636442815245525	-0.999827772889197	-0.940214702929505	0.340285003801122	-0.0142277399207782
11	0.0001	-9.00946472167969	2.14773376464844	0.289198608398438	0.334540304333597	0.94230698789811	0.011845899492011	0.0166515189383603	0.00665748043299086	-0.999839189505657	-0.942234318889643	0.334683758961613	-0.0134636471245868
12	0.0001	-9.18489990234375	1.83338745117188	0.31853759765625	0.328747085128262	0.944354194061835	0.0109777127624156	0.0161881789721039	0.00598743655650713	-0.999851035637334	-0.944279247299886	0.32887582270715	-0.0133190223911878
13	0.0001	-9.25734924316406	1.47173950195312	-0.096998291015625	0.322788094076055	0.946427618714645	0.00908894146066991	0.0167657396983518	0.00388388310803051	-0.999851901745639	-0.946322754822642	0.322892672549457	-0.0146138878726453
14	0.0001	-9.52199890136719	1.56813903808594	0.04550537109375	0.31767413951126	0.9481695295744	0.00759501628972875	0.0175170473756314	0.002140039873685	-0.999844274515076	-0.948038129052319	0.317757711812002	-0.0159292952442923
15	0.0001	-9.61300964355469	1.38072875976563	-0.032332763671875	0.31373316892869	0.949483783444337	0.00721413128445669	0.0190923389052918	0.00128797392429669	-0.999816895095445	-0.949319219919774	0.313813457486128	-0.0177237860378307
16	0.0001	-9.426796875	1.35737731933594	-0.153880004882813	0.31003892043695	0.950697113807456	0.00713201321254547	0.0212188477029273	0.00058035059819711	-0.999774686464577	-0.950487047947762	0.31012039757384	-0.0199927659965529
17	0.0001	-9.34297119140625	1.52981872558594	-0.410147094726563	0.307186547821799	0.951617317438771	0.00780422885134135	0.0240556211470819	0.000433374340876591	-0.999710527741861	-0.951345232777541	0.307285361410724	-0.0227586188976209
18	0.0001	-9.61540466308594	1.32145202636719	-0.576600952148438	0.30461851639859	0.952437157906685	0.00842731901370958	0.0261416121493139	0.000484251242318212	-0.999658132370747	-0.9521156314132	0.304734680893677	-0.0247507308835921
19	0.0001	-9.58187438964844	1.14182556152344	-0.243693237304688	0.302790360761727	0.953018102136722	0.0086310155545839	0.0282405190594993	8.03931764581933e-05	-0.999601153770937	-0.952638688335212	0.302913338327413	-0.0268893835985373
20	0.0001	-9.39446411132812	1.55317016601563	-0.838855590820313	0.301066637669237	0.953557369735199	0.00933928831497732	0.0310123860316022	-2.09601314388186e-06	-0.999519000273749	-0.95309868932612	0.301211458313419	-0.0295727202931369
21	0.0001	-9.71060668945313	0.897533569335938	-0.633482666015625	0.298385208049259	0.954391474640035	0.0101577926647844	0.0321527268501857	0.000585337294257637	-0.999482796018196	-0.953903805304025	0.298557482764496	-0.0305116324019207
22	0.0001	-9.64294738769531	1.16817077636719	-0.592767333984375	0.295877888713207	0.955166967701586	0.0105989991213213	0.033447835671152	0.000729286930073625	-0.9994401985259	-0.954639993536585	0.29606676941584	-0.0317324878970587
23	0.0001	-9.44535827636719	0.76880126953125	-0.6179150390625	0.292963587055174	0.956071133348901	0.0100162186833839	0.0343417999427918	-5.29106344210883e-05	-0.999410145024131	-0.955506660069125	0.293134756003809	-0.0328487044817995
24	0.0001	-9.46272216796875	0.865200805664063	-0.80712158203125	0.290803366437275	0.95674246236645	0.00878992455775363	0.0347241564688952	-0.00137266430292143	-0.999395991962263	-0.95615251661347	0.290932941582239	-0.0336212503639264
25	0.0001	-9.63456481933594	0.681981811523438	-0.650846557617188	0.287947351842085	0.957621404905818	0.00689691476954324	0.0349834700328019	-0.00332150315308277	-0.999382371488145	-0.957007042498432	0.288010785358832	-0.0344573377583575
26	0.0001	-9.62258972167969	1.05320983886719	-0.925076293945313	0.285646475418769	0.958315095887769	0.00618611949861231	0.0355936460039202	-0.00415839574046994	-0.999357693775864	-0.957673839804024	0.285683189457276	-0.0352977593699036
27	0.0001	-9.68366271972656	0.678988037109375	-0.925675048828125	0.283160005311769	0.959055468810867	0.00574622796338425	0.0354480982927336	-0.00447828611702744	-0.999361484789605	-0.958417364053505	0.283182896195059	-0.0352647640472761
28	0.0001	-9.43398193359375	0.92208251953125	-0.775986328125	0.281044076336026	0.959682512826203	0.0048684424629391	0.0350029875715018	-0.00518086815610758	-0.999373778656524	-0.959056316395184	0.28103849056799	-0.035047807374595
29	0.0001	-9.474697265625	0.537083129882812	-0.604143676757813	0.278766047538305	0.960351536916773	0.00379687785748339	0.0347205233933026	-0.00612732483498835	-0.999378277303275	-0.959731199865445	0.278724561945946	-0.0350519981295458
30	0.0001	-9.43697570800781	0.42391845703125	-0.4358935546875	0.276301655860562	0.961067537482872	0.00256580695300035	0.0359818421802443	-0.00767664341093682	-0.999322958897301	-0.960397158472487	0.276206910743649	-0.0367020497441575
31	0.0001	-9.5273876953125	0.310155029296875	-1.22445373535156	0.273726623904305	0.961804864504088	0.00226671176467669	0.0377525955334934	-0.00838930512576819	-0.999251900718729	-0.961066322839603	0.27360742346614	-0.0386070062007486
32	0.0001	-9.73635314941406	0.314346313476562	-0.62989013671875	0.271457362629904	0.962448768140878	0.00180803156065512	0.0382894828726094	-0.00892237450152944	-0.999226854490312	-0.96168852326279	0.27131671518239	-0.0392737098740755
33	0.0001	-9.51421508789062	0.35206787109375	-0.674197998046875	0.268546591399074	0.963266628040484	0.000362700227111434	0.0390100933215283	-0.0104992980743704	-0.9991836554703	-0.962476462500245	0.268341513827922	-0.0403966717633279
34	0.0001	-9.64474365234375	0.463436279296875	-0.811312866210938	0.266711977358656	0.963776030896533	0.000695271717383039	0.0394530718477811	-0.0101972992401639	-0.999169390148628	-0.962968419136999	0.266517874367802	-0.0407436668361921
35	0.0001	-9.58666442871094	-0.0592767333984375	-0.972976684570312	0.263639768356268	0.964620683186513	-0.00100504220772607	0.0390263953457589	-0.0117073142231666	-0.999169594843637	-0.963831423542193	0.263381617358664	-0.0407321817506024
36	0.0001	-9.63695983886719	0.472417602539063	-0.616717529296875	0.261171075008613	0.965292456672198	-0.000377717617398965	0.0387112045371181	-0.0108647477933602	-0.999191373010532	-0.964515998945653	0.260945263124548	-0.040205191589264
37	0.0001	-9.50164123535156	0.085023193359375	-0.777183837890625	0.259566915002539	0.965724822478154	-0.000764124074860595	0.03865290158706	-0.0111797060849341	-0.999190155761533	-0.964951278477295	0.259327170619262	-0.0402299483425305
38	0.0001	-9.43458068847656	0.240100708007813	-0.74485107421875	0.258115970686627	0.966112653664642	-0.00157673890158616	0.038295347439958	-0.0118620867087748	-0.999196055468278	-0.965354656093269	0.257848077999385	-0.0400594137634314
39	0.0001	-9.71779174804688	0.401165771484375	-0.552650756835938	0.256503562791966	0.966541534181124	-0.00183983092369716	0.0378597340198571	-0.0119493438042766	-0.999211616086699	-0.965801513156287	0.256231683999944	-0.039658054662065
40	0.0001	-9.60462707519531	0.40236328125	-0.362246704101563	0.255179745986397	0.966892413395324	-0.00153562914926753	0.037344502762409	-0.0114428636914574	-0.999236933356632	-0.966172182041973	0.254927679527165	-0.0390281034531371
41	0.0001	-9.608818359375	0.3017724609375	-0.547261962890625	0.253659335025771	0.967291710600775	-0.00192050964861573	0.0364827436034167	-0.0115511083969973	-0.999267522395264	-0.966605375100641	0.253403469782534	-0.0382195019423512
42	0.0001	-9.50044372558594	0.326920166015625	-0.31853759765625	0.252789433131215	0.967521211514859	-0.000455813577545316	0.035639105212005	-0.00978241229014398	-0.999316845945005	-0.966864704432263	0.252600494216864	-0.036954480709506
43	0.0001	-9.43577819824219	0.233514404296875	-0.367635498046875	0.251495585866093	0.967858380325328	-0.000354857583545254	0.0350915459226508	-0.0094848504107039	-0.999339092109103	-0.967222080855596	0.251316917947679	-0.0363490448107007
44	0.0001	-9.39925415039063	0.131127319335938	-0.41433837890625	0.250159274961453	0.968202988463167	-0.00181941797106239	0.0347598707968506	-0.0108589989359976	-0.999336696776564	-0.967580533357791	0.249930100774399	-0.0363710900847406
45	0.0001	-9.70641540527344	0.16525634765625	-0.359851684570313	0.248544804650942	0.968613970468474	-0.00352934757757095	0.0347487359793407	-0.0125576915482501	-0.999317181745024	-0.967996903625659	0.248252453353994	-0.0367792601184364
46	0.0001	-9.64474365234375	0.525108032226563	-0.393381958007813	0.247153264617121	0.968969969417209	-0.00353017800023375	0.0340903887988196	-0.0123362008912394	-0.999342615692494	-0.968376532749862	0.246870444798856	-0.0360814953150553
47	0.0001	-12.3732696533203	2.03456909179688	0.447269897460938	0.244104856290854	0.969731858064795	0.00573956352195315	0.0316865914316949	-0.00206055065591398	-0.999495729883042	-0.969231024605931	0.244163628710739	-0.0312304876065393
48	0.0001	-8.61608276367187	-0.434097290039062	-0.623303833007813	0.241367535957531	0.970387405957484	0.00948656654931207	0.0306969811421652	0.00213607422427331	-0.999526454144995	-0.969948147033927	0.241544446315814	-0.0292723849291363
49	0.0001	-9.27591064453125	-0.04550537109375	-0.0616717529296875	0.240328764370601	0.970656415622225	0.00825880303160909	0.0310570618613076	0.000814820811418038	-0.999517280978968	-0.970194590752104	0.240469247261392	-0.0299499114672629
50	0.0001	-8.50052307128906	-0.607736206054687	-0.194595336914062	0.238373123479277	0.971144776628646	0.0074884464097037	0.0319846338842171	-0.000143811856747389	-0.999488350364046	-0.970646813829843	0.238490675174204	-0.0310959910105232
51	0.0001	-9.44416076660156	0.3448828125	-0.420924682617188	0.236574588978779	0.971583739576268	0.00758293086583389	0.0335707932527385	-0.000373967208916359	-0.999436272099882	-0.971033194947476	0.23669579028686	-0.0327053079877783
52	0.0001	-9.85370910644531	0.02155517578125	-0.395776977539063	0.23703105244536	0.971445387232413	0.0104947511410079	0.0323717235011158	0.00289887939338013	-0.99947169445454	-0.970962590265048	0.237245560808057	-0.030760237038397
53	0.0001	-9.33039733886719	-0.143102416992188	-0.285606079101562	0.235813552963528	0.971745706238482	0.0101119061403582	0.0318333483619702	0.00267560753871871	-0.999489609278838	-0.971276791738989	0.236015091744941	-0.030302975065897
54	0.0001	-9.7189892578125	0.680185546875	-0.0844244384765625	0.233459728222557	0.972343708445556	0.00665341600937025	0.0325479147365781	-0.000975724548372303	-0.999469699994906	-0.971821582670683	0.233552479344471	-0.0318755525050171
55	0.0001	-9.64354614257813	0.17962646484375	-0.20357666015625	0.231816600561627	0.9727361810285	0.00673690003938543	0.0327185808419882	-0.00087528320132102	-0.999464220643743	-0.972209112368187	0.231912819821172	-0.0320294525531668
56	0.0001	-9.78185852050781	0.748443603515625	-0.025147705078125	0.231344839125863	0.972846030046839	0.0070828830240694	0.0324369376719496	-0.000436824422511917	-0.999473688627615	-0.972330916141359	0.231452826741278	-0.0316572031167852
57	0.0001	-9.62438598632813	0.41912841796875	-0.400567016601563	0.230212604131026	0.973112342458263	0.00738416241717232	0.0321636766160757	-2.48088430543358e-05	-0.999482614801807	-0.97260868534357	0.230330997349278	-0.0313045820023045
58	0.0001	-9.64174987792969	0.236508178710938	-0.104183349609375	0.229123337551885	0.973377607658335	0.00620718119776104	0.0316616524529726	-0.00107908575089355	-0.999498061697915	-0.972882334073876	0.229204861386662	-0.0310659872479336
59	0.0001	-9.43877197265625	0.439486083984375	-0.2442919921875	0.228245933620458	0.973577261142225	0.00714915187490378	0.0315335271247301	-5.32087051531849e-05	-0.999502693260958	-0.973092714212166	0.228357863354075	-0.0307124696428331
60	0.0001	-9.59265197753906	-0.220341796875	-0.351469116210938	0.226271026122744	0.974033114885608	0.00780473212873706	0.0315290782236801	0.000684507710635884	-0.999502600634715	-0.973553973831819	0.22640455506777	-0.0305554820096085
61	0.0001	-9.37051391601562	0.20836669921875	-0.128133544921875	0.224973275587968	0.974346096100559	0.00605890128825187	0.0317562248422447	-0.00111711871735726	-0.999495019612174	-0.973847301919038	0.225052076327617	-0.0311928755589969
62	0.0001	-9.46870971679687	0.310155029296875	-0.201780395507813	0.224708166251514	0.974404929276511	0.00642447052448669	0.0320759257999888	-0.000807220715344947	-0.999485109133093	-0.973898031112065	0.224798536908839	-0.0314363292973221
63	0.0001	-9.31542846679688	0.339494018554688	0.0197589111328125	0.22464484549591	0.974409331315882	0.00781974658504764	0.0330726402114784	0.000396004041695597	-0.999452872150679	-0.973879301485333	0.224780555710085	-0.0321373289665549
64	0.0001	-9.36632263183594	0.49097900390625	-0.1676513671875	0.223778989580603	0.974591523799786	0.00971213467242948	0.0343102887207865	0.00208135778489055	-0.999409061414628	-0.974035814490505	0.223979976085771	-0.0329727524243433
65	0.0001	-9.77467346191406	-0.133522338867188	-0.664019165039063	0.221758621474565	0.975065279864992	0.00841509379065514	0.0345833705752393	0.000759843488234935	-0.999401527474083	-0.974488124238236	0.221916927339215	-0.0335525420641329
66	0.0001	-9.55253540039063	0.496966552734375	-0.269439697265625	0.220931591668606	0.975244319472822	0.00936745102839792	0.0349227694740823	0.00168796739790733	-0.999388588557186	-0.974663855888294	0.221123648898205	-0.0336853072259532
67	0.0001	-9.3262060546875	-0.220940551757813	-0.721499633789063	0.219473456115024	0.975598146785763	0.00629746370466111	0.0354439720547027	-0.00152266747044733	-0.999370505032423	-0.974974423718854	0.219558505806447	-0.0349132585435473
68	0.0001	-9.32201477050781	0.189805297851562	-0.0640667724609375	0.219709880566644	0.975542018172529	0.0067334360665029	0.0379616614980959	-0.00165239292799063	-0.999277830162321	-0.974826384869478	0.219806825138534	-0.0373962429238926
69	0.0001	-9.60223205566406	0.41912841796875	-0.533490600585938	0.218612924084835	0.975791705608799	0.0062399269345581	0.0404572045301795	-0.00267441500982096	-0.999177692958544	-0.974972617064029	0.218685607138252	-0.0400624662981811
70	0.0001	-9.7189892578125	0.417930908203125	-0.864003295898437	0.217355017197546	0.976072125782109	0.00632469526925222	0.042019198302858	-0.00288298424116096	-0.999112643987579	-0.975187768315948	0.21742790454093	-0.0416403993004482
71	0.0001	-9.16394348144531	0.173040161132813	-0.975371704101563	0.215947989823517	0.976350196263108	0.0103324705744564	0.0433699377462688	0.000980276054732832	-0.999058600663015	-0.975441189509171	0.216192815134653	-0.0421325585869965
72	0.0001	-9.93693603515625	0.32572265625	-0.587977294921875	0.213378536760077	0.976898046003162	0.011824033378411	0.0386628158187217	0.00364961200908692	-0.999245648979845	-0.976204275099785	0.213674724867937	-0.0369908803560481
73	0.0001	-9.43937072753906	0.307760009765625	-0.0700543212890625	0.20924182158051	0.977727818277588	0.0163148235607511	0.0403007520093633	0.00804767712355781	-0.999155185284246	-0.977033115861049	0.209722550668886	-0.0377192557162357
74	0.0001	-9.8531103515625	-1.41845031738281	-0.513132934570313	0.20559752859231	0.978457797688126	0.0187081367334448	0.0415370922714933	0.0103745503708716	-0.999083098981377	-0.977754737243632	0.206186097610642	-0.0385093099098262
75	0.0001	-9.35135375976563	0.140108642578125	-0.578397216796875	0.204486923589223	0.978620255932074	0.022079238221846	0.0431412213581844	0.0135239846962653	-0.9989774456201	-0.977918162782929	0.205230349893423	-0.0394533950615616
76	0.0001	-9.45493835449219	-0.0616717529296875	-0.631087646484375	0.202686547630054	0.978963696913246	0.0234146009096826	0.0436081679697765	0.0148636244927883	-0.998938136399475	-0.978272196832829	0.203492390012224	-0.0396781565975934
77	0.0001	-9.53996154785156	0.21794677734375	-0.7999365234375	0.200944770787512	0.979257693028379	0.0259917244116689	0.0454589299474049	0.0171826874925282	-0.998818422406481	-0.978547231757973	0.201888894928056	-0.0410632356681346
78	0.0001	-9.39925415039063	0.0844244384765625	-0.903521118164063	0.198169918605441	0.979645209736176	0.0319991625027477	0.0503331374803143	0.0224326383575992	-0.998480521596544	-0.978874485637102	0.199479421939411	-0.0448631429061513
79	0.0001	-9.69863159179688	-0.221539306640625	-0.38080810546875	0.195764915289696	0.97994098760334	0.0373062830714722	0.0526371544587798	0.0274873100717415	-0.998235331850913	-0.979237166324941	0.197383151763291	-0.04620025419723
80	0.0001	-9.46391967773438	-0.147293701171875	-1.27654541015625	0.193862526331319	0.980433785146815	0.0341601204202879	0.0567176314560963	0.0235612136607722	-0.998112207866852	-0.979387783856042	0.195434035299692	-0.0510402456893531
81	0.0001	-9.74832824707031	-0.158670043945313	-2.34831665039062	0.190262137121404	0.981252029087224	0.0307371857885951	0.0654402711868953	0.018563209181078	-0.997683806710265	-0.979549840531344	0.191832903009641	-0.0606815230355355
82	0.0001	-9.27291687011719	-0.217348022460938	-0.441282348632813	0.188328861825536	0.981616420951546	0.0310071269513212	0.0686114355943298	0.018344552267073	-0.997474785800526	-0.979706441087933	0.189980734603269	-0.0638953031952963
83	0.0001	-9.64773742675781	-0.642463989257813	-1.9974462890625	0.186532891715877	0.981956997969431	0.0310794859509444	0.0742437727103119	0.0174549972487902	-0.997087350879944	-0.97963939412513	0.188297045143855	-0.0696482610568332
84	0.0001	-9.54714660644531	-0.199385375976563	-1.36815490722656	0.186211190292722	0.981949288306923	0.0331811362568463	0.0771194631530234	0.0190598087410498	-0.996839662179302	-0.979478422943945	0.188181611440338	-0.0721782522853007
85	0.0001	-9.63157104492188	-0.159268798828125	-2.85546203613281	0.185754357144179	0.981826610333663	0.0388822072761192	0.0843601837462671	0.0234894495301497	-0.996158423725397	-0.978968170167064	0.188320877763144	-0.0784638056575787
86	0.0001	-9.15316589355469	-0.556842041015625	-1.81123352050781	0.184515410403981	0.982165203373067	0.0361327636168605	0.0962555991294446	0.0185285665658071	-0.995184179866847	-0.978104760728462	0.187104798185824	-0.09112009403068
87	0.0001	-10.3249291992188	-0.79754150390625	-2.68122436523438	0.185864692865336	0.982397469293743	0.0186956752037651	0.0982980282234654	0.000341001016215259	-0.995156963180023	-0.977646057422344	0.186802291323091	-0.0965043541141516
88	0.0001	-8.97294067382813	0.144898681640625	-2.10342590332031	0.183757098486985	0.982966952284812	0.00304950349289607	0.0993956524632801	-0.0154945415481419	-0.994927345816574	-0.977933450203563	0.183128069661976	-0.100549873569463
89	0.0001	-9.9776513671875	0.406554565429688	-3.0704150390625	0.18376460999439	0.982951194971501	-0.00612506471057228	0.101810465830718	-0.0252305896339892	-0.994483809015538	-0.977683587445827	0.182127333618049	-0.104711208512927
90	0.0001	-9.41182800292969	-0.59396484375	-2.69439697265625	0.180576660262825	0.98354906251968	-0.00482818651084516	0.102811276864992	-0.0237573795521491	-0.994417129913904	-0.978172740939817	0.179072132207874	-0.105409963233137
91	0.0001	-8.3921484375	-0.726888427734375	-2.64589782714844	0.178845025770853	0.983847871434255	-0.00760411936448668	0.103448999201699	-0.026489844925818	-0.994281948282263	-0.978423610365771	0.177035742125969	-0.10651565466502
92	0.0001	-9.6136083984375	-0.922681274414063	-3.21052368164063	0.178565017313079	0.983800998419165	-0.0158155019342818	0.105545972201954	-0.0351332869726705	-0.993793590187842	-0.97825077681744	0.175787507110003	-0.110109808827944
93	0.0001	-9.51601135253906	-0.11256591796875	-3.29494812011719	0.178332530434562	0.983685154798522	-0.0236859624633412	0.108850470035401	-0.0436461775052275	-0.993099484624906	-0.97793102198564	0.174523715919043	-0.114858124744968
94	0.0001	-9.08430908203125	-0.010777587890625	-2.29682373046875	0.176752654096313	0.98397984059638	-0.0232845994131729	0.109126243985868	-0.0431026360922601	-0.993092959211491	-0.97818707931737	0.172990855428317	-0.11499652948995
95	0.0001	-9.86927673339844	-0.601748657226563	-2.89557861328125	0.174329661291701	0.984391321615126	-0.0241432210516222	0.106046359198502	-0.0431449340146448	-0.993424725064569	-0.978960335710627	0.170623095147458	-0.111912557417111
96	0.0001	-9.8339501953125	-1.03404968261719	-2.42256225585938	0.172122565927442	0.984761398193536	-0.0248759105655702	0.103689614858087	-0.0432244493163964	-0.993670021059243	-0.97960312681674	0.168453660124104	-0.109549433232938
97	0.0001	-9.0100634765625	-0.696351928710938	-2.86743713378906	0.169814356103462	0.985150428835607	-0.0253321342603795	0.10367688436466	-0.0434222223420172	-0.993662726610653	-0.980007238804696	0.166111839348975	-0.109511043819775
98	0.0001	-9.2591455078125	-0.420924682617188	-2.72852600097656	0.167377325922163	0.985500660887311	-0.0278078794196657	0.104281722407665	-0.0457446583856037	-0.993495218207353	-0.98036225607621	0.163388719377615	-0.110426324947026
99	0.0001	-10.0147741699219	-0.3448828125	-3.458408203125	0.165027360467122	0.985573572729318	-0.0375593268686151	0.104494926017193	-0.055338695092756	-0.992984611795214	-0.980737875649715	0.159944870386643	-0.112119836349703
100	0.0001	-8.33047668457031	-2.12378356933594	-3.05185363769531	0.165353780969754	0.984721729470002	-0.0546007566670565	0.116217784515835	-0.0744325229714787	-0.990430828521776	-0.979362830457251	0.157425903312348	-0.126749876864057
101	0.0001	-9.30405212402344	-0.272433471679688	-2.48782653808594	0.1660032070574	0.984140545723393	-0.0625325635962665	0.117547166056371	-0.0827082081950789	-0.98961710577843	-0.97909427482688	0.156929087681101	-0.129412759961309
102	0.0001	-9.47110473632813	-0.432899780273438	-2.46806762695312	0.163085236146712	0.984454063161425	-0.0652181207635775	0.11607073552816	-0.0847883907702717	-0.989615335948539	-0.979760577950002	0.153821735510782	-0.128094041936102
103	0.0001	-9.31542846679688	-1.18074462890625	-2.835703125	0.157765732334116	0.985502454557058	-0.0624090198856972	0.11421947388139	-0.0809882714552019	-0.990148883589209	-0.980848553797852	0.149083238322462	-0.12534074582493
104	0.0001	-9.85730163574219	-1.00650695800781	-1.77830200195313	0.152512587305785	0.986644939437422	-0.0571985506444085	0.112133124538299	-0.0747770157575369	-0.990875653296455	-0.981919585859542	0.144707157379732	-0.122040016013206
105	0.0001	-10.2608624267578	-1.05380859375	-2.17108520507813	0.148973946552439	0.987140608353735	-0.0579670819311212	0.109996072464166	-0.0748003880000944	-0.991113397143583	-0.982704242023535	0.141273922908842	-0.119724898892826
106	0.0001	-8.92983032226562	-2.08306823730469	-2.55488708496094	0.150267761726871	0.986089341711522	-0.071045126142015	0.113752862919035	-0.088628834998833	-0.989547985589619	-0.982079368464341	0.140615574420788	-0.125488542373367
107	0.0001	-9.7189892578125	-1.03644470214844	-2.71894592285156	0.153117468451179	0.984898915339461	-0.0808032636609144	0.119587342561391	-0.0996339003067838	-0.987811699368236	-0.98094541558346	0.141588179142225	-0.133037134563934
108	0.0001	-9.19567749023438	-0.693358154296875	-2.25251586914063	0.151701610001752	0.98474699912189	-0.0852054531312899	0.119301278857299	-0.103814882856906	-0.987415654605709	-0.981200196894543	0.139627425020442	-0.133230461217664
109	0.0001	-8.96874938964844	-0.707129516601563	-1.9974462890625	0.146697444947384	0.984984961720267	-0.0910191454081691	0.122401642463209	-0.109382830543912	-0.986434607211502	-0.981579185582201	0.133566543592046	-0.136609958878027
110	0.0001	-9.78305603027344	-2.13755493164063	-2.85067199707031	0.144852197214986	0.984617314832399	-0.0977066235944526	0.122943456046263	-0.115893322605537	-0.985623480032233	-0.981785489594031	0.130757336726037	-0.137839657990444
111	0.0001	-9.21543640136719	-1.67471740722656	-2.32676147460938	0.143593363972044	0.984647722666827	-0.0992461992734428	0.125807082577223	-0.117634050895174	-0.985055738546505	-0.98160762211619	0.128961592410389	-0.140767126440716
112	0.0001	-9.21603515625	-1.45677062988281	-2.63631774902344	0.143930635027527	0.983838412667477	-0.106517369759645	0.12814024772466	-0.125260991075824	-0.983813885360318	-0.981256362636001	0.127951795120829	-0.144098191909967
113	0.0001	-9.44655578613281	-1.46215942382813	-2.53273315429688	0.1432573298925	0.983412350980686	-0.111254147656222	0.12873598921491	-0.129975018610695	-0.983124376474314	-0.98127691428716	0.126517360373154	-0.145220435928555
114	0.0001	-9.28429321289063	-1.52203491210938	-2.51536926269531	0.142075174126045	0.983242608607486	-0.114230545458732	0.129207216697859	-0.132835200397877	-0.982680163984421	-0.981386845260444	0.124855044567696	-0.145914625023512
115	0.0001	-9.45613586425781	-1.6477734375	-2.55009704589844	0.141370825560863	0.982882920805056	-0.118133203080088	0.129514645623508	-0.136669217095826	-0.982113782444494	-0.981448035429924	0.123542256285593	-0.146618773227059
116	0.0001	-9.359736328125	-1.38013000488281	-2.25191711425781	0.140456658552365	0.982694407730965	-0.120762693256626	0.129735799568304	-0.13918744053331	-0.981730858590153	-0.981550074819761	0.122223391427647	-0.147040447528042
117	0.0001	-9.32381103515625	-1.50287475585938	-2.54171447753906	0.140941998221984	0.982150638291636	-0.124561136959036	0.12987156037434	-0.14307179759662	-0.981154339815305	-0.981462546887618	0.122108903998869	-0.147718260960067
118	0.0001	-9.19867126464844	-1.37054992675781	-2.27167602539062	0.139470462228921	0.982236241291241	-0.125538665198047	0.131489036513076	-0.144025507266437	-0.980799310018879	-0.981457397670686	0.12028557499011	-0.149240601066815
119	0.0001	-9.36692138671875	-1.37653747558594	-2.43633361816406	0.138233837544967	0.982280096751756	-0.126559146974659	0.132722298865543	-0.145006015916828	-0.980488677513297	-0.98146635069239	0.118739491633114	-0.15041521061805
120	0.0001	-9.42320434570312	-1.446591796875	-2.51237548828125	0.137674107792904	0.982161890625416	-0.128077557154005	0.133498886219702	-0.146529225191343	-0.980156739273329	-0.981439701368111	0.117843993346857	-0.151290798829734
121	0.0001	-9.29626831054687	-1.46215942382813	-2.59380615234375	0.13675345857727	0.981888004414997	-0.131127565191651	0.134781618692707	-0.149583132122038	-0.97951967915256	-0.981393094957229	0.116279118376846	-0.152796465272515
122	0.0001	-10.1051861572266	-0.0652642822265625	-1.78369079589844	0.13724392702357	0.981394079744991	-0.134274959454958	0.134965812956898	-0.152821042405374	-0.97899436072483	-0.981299308991927	0.116238501537212	-0.153428409795418
123	0.0001	-8.80828308105469	-1.75854309082031	-3.0033544921875	0.137411672489726	0.980864437949266	-0.137923843587856	0.13560394707724	-0.156562407643513	-0.978314766345648	-0.981187852452653	0.115728850678374	-0.154522591616932
124	0.0001	-9.31003967285156	-1.30887817382812	-2.653681640625	0.136366696124053	0.980774479030027	-0.139590635329125	0.136341440236412	-0.158146576563583	-0.97795739784281	-0.98123143848048	0.114328831029611	-0.155286131167376
125	0.0001	-9.39506286621094	-1.12925170898437	-2.52255432128906	0.13485008457835	0.980825412115844	-0.140701690242145	0.136764904228046	-0.159063748022154	-0.977749500146453	-0.981382094630173	0.112606549600498	-0.155592253426594
126	0.0001	-9.28728698730469	-1.302890625	-2.42256225585938	0.133629222281959	0.980596920127956	-0.143432601551688	0.137033100700168	-0.161623164664314	-0.977292117003094	-0.981511670977384	0.110939771405293	-0.15597181429901
127	0.0001	-9.38608154296875	-1.26217529296875	-2.60039245605469	0.132266834029085	0.980415017117119	-0.145917369861038	0.13760977302663	-0.163947679168287	-0.976823785983374	-0.981615522994356	0.109121733429105	-0.156599528447391
128	0.0001	-9.23160278320313	-1.31067443847656	-2.53153564453125	0.131073585410804	0.980274428900664	-0.147924843251681	0.138255567025989	-0.165828753328527	-0.976414984909505	-0.981684834044959	0.107530779839933	-0.157264166271712
129	0.0001	-9.30105834960938	-1.28313171386719	-2.40340209960938	0.129362217597331	0.980400311937356	-0.148595575342728	0.139068504825571	-0.166311452007036	-0.976217420402285	-0.981797009378151	0.105620685873777	-0.157857223755114
130	0.0001	-9.35434753417969	-1.23882385253906	-2.56626342773438	0.127579057784427	0.980445496864549	-0.149833947064292	0.139559708640849	-0.16731099001883	-0.97597649579434	-0.981960626368959	0.103603379756388	-0.158176066344231
131	0.0001	-9.31722473144531	-1.29570556640625	-2.23515197753906	0.12403457771739	0.981479002797251	-0.145994488247272	0.139960083541772	-0.162964310086288	-0.976654395706629	-0.982357673429311	0.100705514775577	-0.157581092610557
132	0.0001	-9.33758239746094	-1.5328125	-2.71894592285156	0.122405833802211	0.981525264282987	-0.147054300941519	0.140184197921766	-0.163781581600883	-0.976485526867318	-0.98253000081637	0.098912835883552	-0.157642152970761
133	0.0001	-9.27531188964844	-1.43341918945312	-2.44591369628906	0.121922159047913	0.98100389877211	-0.150885180607688	0.140334817924346	-0.167530288255425	-0.975827721165573	-0.982568636794009	0.0978005782752493	-0.158094657967278
134	0.0001	-9.46811096191406	-1.30109436035156	-2.47704895019531	0.121475996365649	0.980754263415836	-0.152855019867302	0.140767379695157	-0.169460932040172	-0.975431974730087	-0.982562022022393	0.0969745703972784	-0.158643643350532
135	0.0001	-9.41302551269531	-1.47293701171875	-2.4668701171875	0.120675294980334	0.980543555749748	-0.154828319305772	0.141390951047558	-0.171355632517952	-0.975010690283055	-0.982571153730495	0.0957683793431488	-0.159318377391657
136	0.0001	-9.26034301757813	-1.57951538085938	-2.43393859863281	0.119722419840736	0.980192465996872	-0.157763341085469	0.142023015040045	-0.174180875751197	-0.974418024115667	-0.982596562881437	0.0942536584198074	-0.160063245275325
137	0.0001	-9.35913757324219	-1.48850463867187	-2.19443664550781	0.118773974752896	0.979689817004454	-0.161556817804689	0.142667269771077	-0.177858790488123	-0.973659232371454	-0.982618335396539	0.0925965069745129	-0.160894666905569
138	0.0001	-9.36871765136719	-1.80045593261719	-1.95014465332031	0.117783345794344	0.979114693938691	-0.16571511568603	0.143636078467217	-0.181919437191494	-0.972766156552791	-0.982596438226828	0.0907729832344098	-0.162063274984422
139	0.0001	-9.39446411132812	-1.89446044921875	-2.03816162109375	0.117257343111909	0.978241270583758	-0.171157039040209	0.14519620835588	-0.187381043643845	-0.971496992049908	-0.982430036473546	0.0890638030269261	-0.164008726673214
140	0.0001	-9.75251953125	-1.96152099609375	-2.03696411132813	0.118371061029055	0.976631922051467	-0.179383334624242	0.147441478656279	-0.195938003790163	-0.969468570425249	-0.981961965802396	0.0883084792122652	-0.167189444094748
141	0.0001	-9.49744995117188	-2.136357421875	-2.26508972167969	0.120921321800854	0.974330285326018	-0.189890834508816	0.149799729914409	-0.207014714828833	-0.966801400889504	-0.981294081736716	0.0884613075918342	-0.170986906538596
142	0.0001	-8.76517272949219	-1.38551879882813	-2.39861206054688	0.123523109446738	0.971736724527219	-0.201171020869613	0.151923412011556	-0.218851913079102	-0.963858452795007	-0.980643318600283	0.0884962052674008	-0.174662827579006
143	0.0001	-8.68374206542969	-1.01488952636719	-2.529140625	0.124461356879978	0.968934102133293	-0.213719620921301	0.153151232757636	-0.231572998526424	-0.960686549431341	-0.980333652665464	0.0868369280699766	-0.177215341815991
144	0.0001	-8.96874938964844	-1.16876953125	-2.60697875976563	0.125839702907017	0.965657813099988	-0.227308946527018	0.155082506486573	-0.245461946789947	-0.956921025403837	-0.979853961238161	0.0851670163680641	-0.180645492522913
145	0.0001	-9.14358581542969	-0.856219482421875	-2.10462341308594	0.127623518836898	0.961786837837043	-0.242236074941594	0.156983912511315	-0.260742873122472	-0.952559292290238	-0.979320319738301	0.08354180198715	-0.184261983785077
146	0.0001	-9.61540466308594	-1.39929016113281	-2.12138854980469	0.129725719961719	0.95773132334491	-0.256752701766547	0.15954045523627	-0.275727927196504	-0.947903451469042	-0.978630717238846	0.0820050147730428	-0.188565895189601
147	0.0001	-9.42799438476563	-1.42563537597656	-2.34652038574219	0.132752416212286	0.952832996350881	-0.272921375225178	0.163356333333032	-0.292626610071655	-0.942170035311015	-0.977594754665648	0.0804919135253582	-0.194498194097628
148	0.0001	-8.84121459960938	-1.57472534179688	-2.2608984375	0.134980745755493	0.947423163136172	-0.290119885958101	0.16685921863378	-0.310352563281497	-0.935862857272116	-0.976697598764436	0.0779142889183665	-0.199977909155312
149	0.0001	-9.110654296875	-1.25798400878906	-2.70337829589844	0.13727209102732	0.941641193256315	-0.307356854792293	0.17143546653531	-0.328197116040501	-0.928922243159523	-0.975585082829175	0.0748232329261536	-0.206483001662777
150	0.0001	-9.33758239746094	-0.87897216796875	-3.22968383789062	0.139003819807453	0.935579922863801	-0.32460459949468	0.175361017125305	-0.345861494291934	-0.921752862994702	-0.974641704295335	0.0712041761437802	-0.212140315706303
151	0.0001	-8.78133911132813	-1.42443786621094	-3.20513488769531	0.140153941910793	0.928987516694566	-0.342547903792345	0.179866029936208	-0.364094396335217	-0.913829022209451	-0.973655526272949	0.0664640081770412	-0.218122561362159
152	0.0001	-8.75858642578125	-1.12446166992188	-3.70569396972656	0.142030676202049	0.921669997916921	-0.361042520982519	0.18511729993667	-0.383036962630068	-0.9049940720929	-0.972398515158135	0.0617017033715876	-0.225020060259744
153	0.0001	-8.81187561035156	-1.89565795898438	-3.70629272460938	0.14416925572477	0.913338234893396	-0.380826068416517	0.190968206428359	-0.403291676101704	-0.894922883895933	-0.970951270578138	0.0562946948556758	-0.232560825363613
154	0.0001	-8.87654113769531	-2.51656677246094	-4.11105102539063	0.148044098683243	0.904663556543364	-0.399583275810409	0.197640160265357	-0.422948378910118	-0.884337625473205	-0.969031120189311	0.0519472640243339	-0.241412861846745
155	0.0001	-8.765771484375	-2.42196350097656	-3.34045349121094	0.152774272262968	0.896085342939094	-0.416762618170401	0.204240819702264	-0.441237363276812	-0.873839388455266	-0.966925906831474	0.0483802378895856	-0.250426922034911
156	0.0001	-7.82572631835938	-2.71355712890625	-3.70389770507813	0.159178610003267	0.886730393714295	-0.434017717358081	0.210522812232236	-0.459998908112794	-0.862601385383114	-0.96454254216559	0.0459370590953372	-0.259898962972946
157	0.0001	-8.36879699707031	-2.96802795410156	-4.53317321777344	0.166261694324487	0.877017265382255	-0.450774627970322	0.217277174980171	-0.478484624031864	-0.85078968834708	-0.96184597427706	0.0435106973802588	-0.270109498130844
158	0.0001	-9.18010986328125	-2.91114624023438	-5.14749572753906	0.173594303530041	0.867502219723613	-0.466159754329483	0.223949287869473	-0.49571843481531	-0.839112596644226	-0.959016023977012	0.0412690217822422	-0.280330400771056
159	0.0001	-9.59564575195312	-2.05432800292969	-6.10550354003906	0.179050416345791	0.859969130079191	-0.477905894206421	0.228955691396242	-0.50884090284497	-0.829855545844688	-0.956828218534376	0.0391667065599843	-0.288003002264866
160	0.0001	-9.69923034667969	-1.87470153808594	-5.36664001464844	0.181559695609805	0.854090589770449	-0.487406751487546	0.233911327836622	-0.518927261779287	-0.822192184158886	-0.955155258395086	0.0352670022516612	-0.293997739638246
161	0.0001	-9.42260559082031	-2.12737609863281	-4.71279968261719	0.182697914329805	0.85031958086175	-0.49353630312535	0.237826912241035	-0.525299627048665	-0.817005912852795	-0.953970561345283	0.0318890612221669	-0.298200026594457
162	0.0001	-8.97114440917969	-1.484912109375	-4.99960327148438	0.184982406265033	0.84723938363898	-0.497962785942323	0.239968576680568	-0.530310649518056	-0.813133259197802	-0.952993489787995	0.0309199259180684	-0.30140896901539
163	0.0001	-8.89390502929688	-1.09093139648437	-4.72896606445313	0.187199361856281	0.845148334285908	-0.500680229262507	0.241731565860735	-0.533650654810097	-0.810421389579071	-0.952114619668829	0.030680151148745	-0.304198092266161
164	0.0001	-8.59033630371094	-1.48131958007813	-4.90320373535156	0.187603181241586	0.844292341353589	-0.501971601507208	0.240447638832754	-0.534971028297513	-0.80993267119067	-0.952360215132799	0.0312480593633607	-0.303370366743744
165	0.0001	-8.21671325683594	-1.66992736816406	-4.46850769042969	0.185499225283664	0.843601385830046	-0.50391143988283	0.238175069912611	-0.536119645623144	-0.809844652787828	-0.953342893974295	0.0302064132684018	-0.300374597970892
166	0.0001	-8.38077209472656	-1.91781188964844	-4.01046020507813	0.18196535161853	0.843478386577887	-0.505403623044305	0.235721881281821	-0.536415855755714	-0.810366105151754	-0.954632811868157	0.0283238604330256	-0.296435411911038
167	0.0001	-8.78612915039063	-1.983076171875	-3.58534423828125	0.178681699285993	0.84437181140833	-0.505083254958315	0.233695883565541	-0.535075613816384	-0.811837620157837	-0.955750534577298	0.0270246479724555	-0.292934436448113
168	0.0001	-9.28728698730469	-1.81243103027344	-3.14286437988281	0.175879286879316	0.846668093082802	-0.502214711654642	0.232032433026531	-0.53144819167355	-0.814692438648293	-0.956675193820041	0.0267574236884882	-0.289925186568782
169	0.0001	-9.70581665039063	-2.03456909179688	-3.39913146972656	0.171930743896519	0.851311361716235	-0.495690210429901	0.230809327545853	-0.523988689179191	-0.819855418918546	-0.957688296692103	0.02654842792187	-0.286580368053809
170	0.0001	-9.13101196289062	-2.09863586425781	-3.36320617675781	0.167673837024984	0.856144169002512	-0.488776683425384	0.22908773392722	-0.516061361003081	-0.825348097376942	-0.958855721441662	0.0264165395660782	-0.28266211613151
171	0.0001	-8.60889770507812	-1.84656005859375	-3.51888244628906	0.163532985374873	0.860093249693164	-0.483214822337471	0.227486815446188	-0.50948476394274	-0.829864461287723	-0.959951411006064	0.0257852117009452	-0.27897743881003
172	0.0001	-8.47118408203125	-1.80524597167969	-3.17998718261719	0.159263562241766	0.863966914697129	-0.477698951276624	0.227774825425672	-0.502977382038256	-0.833745993729653	-0.960600721759237	0.0239775617331259	-0.276895882759146
173	0.0001	-8.96815063476562	-1.6429833984375	-2.76624755859375	0.155299508669783	0.869181676085686	-0.469473403467973	0.229117475239009	-0.493971928023361	-0.83874723061539	-0.960930405985276	0.0226924719182644	-0.275858308867455
174	0.0001	-9.4986474609375	-1.45736938476563	-1.6477734375	0.150745694278188	0.873167337623949	-0.463524040545138	0.228709607125012	-0.486965463991263	-0.842945165766135	-0.961752385630163	0.0210579530457817	-0.273109705701229
175	0.0001	-9.47110473632813	-1.12146789550781	-1.90224426269531	0.148353261171481	0.87489416995238	-0.461033080465081	0.224982005561496	-0.483825700890035	-0.845751611486371	-0.963002807406766	0.02174586263181	-0.268612565575561
176	0.0001	-8.83941833496094	-1.8729052734375	-2.28664489746094	0.145972148483754	0.877323257273033	-0.45716084053085	0.223174417962166	-0.479401459869435	-0.848744613792808	-0.963786963511276	0.0218664702887826	-0.26577536838997
177	0.0001	-8.79990051269531	-1.49389343261719	-2.53632568359375	0.14287876040044	0.880105045782231	-0.452770105257725	0.223686300341419	-0.474341596510215	-0.851448465181369	-0.964131785009706	0.0203754314996756	-0.264640780918588
178	0.0001	-9.37949523925781	-1.26037902832031	-2.38723571777344	0.138432192751403	0.883335441348807	-0.447833703585546	0.225332583151882	-0.468420212899399	-0.854287850269089	-0.964397094033437	0.0173494151022269	-0.263888693989478
179	0.0001	-9.35913757324219	-1.2693603515625	-2.11001220703125	0.134981876780212	0.886127462221652	-0.443348636670405	0.226518885606223	-0.463191334828432	-0.856821441026991	-0.964608255928077	0.0152285270617304	-0.263247040930992
180	0.0001	-9.42979064941406	-1.78309204101563	-2.059716796875	0.132747431965411	0.887621902048464	-0.441027752313226	0.22737289043715	-0.460370995646355	-0.858114278556091	-0.964717413547016	0.0136347120047149	-0.262934224907493
181	0.0001	-9.1250244140625	-1.84536254882813	-2.60158996582031	0.130291944699271	0.888951401095419	-0.439077915223454	0.228829857316052	-0.457858241616134	-0.859070850969172	-0.964707678805967	0.0114558751160189	-0.263073862970324
182	0.0001	-9.17951110839844	-1.8537451171875	-2.28784240722656	0.128180274846177	0.889392865124221	-0.438805365289085	0.231392082426999	-0.457063776327568	-0.858807550362292	-0.964379345138859	0.0085461005910285	-0.264385027628708
183	0.0001	-9.39266784667969	-2.00582885742188	-2.26688598632813	0.125603670780843	0.890709787718052	-0.436875030128342	0.233111248758262	-0.454530948570181	-0.859686432656847	-0.964304341786731	0.00613928783766715	-0.264725226520075
184	0.0001	-9.26154052734375	-1.91062683105469	-2.50159790039063	0.123325146516115	0.89151857978929	-0.435873295955679	0.234627819746088	-0.45296815902993	-0.860098618244578	-0.964230623055489	0.00380378699769884	-0.265037425218591
185	0.0001	-8.98611328125	-1.79686340332031	-2.4956103515625	0.120974357717265	0.891947091671479	-0.435655357402712	0.236120120297297	-0.452138229236907	-0.860126915317329	-0.964164142439287	0.00118630573775608	-0.26530378646565
186	0.0001	-9.19627624511719	-2.14054870605469	-2.43154357910156	0.118915941747526	0.892004138668554	-0.436105050872458	0.237875719490532	-0.452024719711166	-0.859702736326286	-0.963988662212975	-0.00150644223657592	-0.26593907151193
187	0.0001	-9.34177368164062	-2.21419555664063	-2.62853393554688	0.117559242043183	0.891795304797964	-0.436899254921017	0.240012832938087	-0.452422372462912	-0.858899200674948	-0.963625271895287	-0.0038898888592902	-0.267228748695562
188	0.0001	-9.22920776367187	-2.01181640625	-2.74529113769531	0.116047726540822	0.891507282005798	-0.437890044754778	0.241512023332454	-0.452964421013888	-0.858192971237482	-0.963433893814501	-0.00616436746044252	-0.267875218755378
189	0.0001	-9.02084106445313	-1.81003601074219	-2.75666748046875	0.114180691768057	0.891228033765398	-0.438948016806127	0.242645556672463	-0.453474205905247	-0.857603800368046	-0.963372152106588	-0.00858699069925867	-0.268030520904341
190	0.0001	-9.23878784179688	-1.95074340820313	-2.63272521972656	0.112949261241105	0.890895062363944	-0.439941419101036	0.2446315253683	-0.454079394682225	-0.856718927140636	-0.963014995304366	-0.0108577705155741	-0.269228950223344
191	0.0001	-9.33698364257813	-2.01840270996094	-2.72433471679688	0.111961471183439	0.891080843729716	-0.439817642788892	0.246366495447345	-0.45367330636112	-0.856436851738856	-0.962687996648672	-0.0124684013934167	-0.2703263954468
192	0.0001	-9.11664184570312	-1.9303857421875	-2.81235168457031	0.110526846784332	0.891028712432651	-0.440285872769641	0.247809844089848	-0.45371542583813	-0.855998010236408	-0.962483297160049	-0.014496412560915	-0.270953421662812
193	0.0001	-9.12682067871094	-1.89865173339844	-3.03927978515625	0.10822164724591	0.890546523890898	-0.441831374908144	0.248617850796877	-0.454563704046082	-0.855313394744317	-0.962536876868894	-0.0172837423535708	-0.270599395634454
194	0.0001	-9.15316589355469	-1.8776953125	-2.7542724609375	0.106129232757423	0.890115262748751	-0.443205826875103	0.249850504362699	-0.455294611206317	-0.854565118920842	-0.962450679995617	-0.0200408589689065	-0.270715815104628
195	0.0001	-9.15077087402344	-2.13515991210937	-3.03808227539063	0.104976247674548	0.889465108170147	-0.444782878236158	0.251269188095986	-0.456465479291857	-0.853523907883335	-0.962207764746137	-0.022160495543286	-0.271413208778644
196	0.0001	-9.20944885253906	-2.04414916992188	-2.57584350585938	0.104053985855592	0.888306189616126	-0.447308485854275	0.252505409343198	-0.458608731520168	-0.852008831894299	-0.961984296275147	-0.0242928973805512	-0.272022184493966
197	0.0001	-9.23639282226562	-1.78967834472656	-2.55129455566406	0.102542007304448	0.887377871431227	-0.449494883210208	0.252480154313718	-0.460296985040537	-0.851105432505464	-0.96215326659306	-0.0262144779993095	-0.271245078715777
198	0.0001	-9.02024230957031	-1.93637329101563	-2.66745300292969	0.101489098998256	0.886841791295448	-0.450789973265159	0.253848600337482	-0.461215159933504	-0.850200837657911	-0.961904803445343	-0.0281462867780679	-0.271931858467122
199	0.0001	-9.12442565917969	-2.08606201171875	-2.63332397460938	0.0997046258115838	0.885010009588654	-0.454770569100137	0.255666950252396	-0.464489274778191	-0.847870346317566	-0.961609795156232	-0.0317332088500475	-0.272579539429628
200	0.0001	-9.25435546875	-2.01002014160156	-2.67703308105469	0.0980730457655411	0.884325598783029	-0.456453626375459	0.256889520857498	-0.465616225117373	-0.846882108077065	-0.961451741777961	-0.0342018456297991	-0.272838380708507
201	0.0001	-9.25675048828125	-1.85614013671875	-2.65008911132813	0.0962213814904938	0.884143969990206	-0.457198956772671	0.257794228730815	-0.465793607024923	-0.846509569519326	-0.961396682632692	-0.0364109322136714	-0.272746517188004
202	0.0001	-9.19807250976563	-1.96930480957031	-2.61715759277344	0.0946242362510221	0.88407065988145	-0.457673816435557	0.259028866636973	-0.465766036268285	-0.846147768246006	-0.96122333521543	-0.0384846436349353	-0.273072576509646
203	0.0001	-9.05676635742187	-2.00283508300781	-2.22078186035156	0.0927470855044225	0.883889007171072	-0.458408334492919	0.26021930057885	-0.465909312421771	-0.845703510815065	-0.961084748467423	-0.0408501603523078	-0.273216710071879
204	0.0001	-9.14298706054688	-1.77051818847656	-2.75726623535156	0.0912709717564905	0.884107530754444	-0.458283191681635	0.261792142508524	-0.465319152380302	-0.845542997457181	-0.960798877932017	-0.0428014075861676	-0.273922535898783
205	0.0001	-9.27052185058594	-1.94894714355469	-2.71056335449219	0.0894046783844386	0.884227013610836	-0.458420540425316	0.263036823101708	-0.464884571784577	-0.845395744376107	-0.960634391001871	-0.0449991479645246	-0.274147120187192
206	0.0001	-9.25495422363281	-1.93697204589844	-2.6201513671875	0.0878178270275277	0.885259391912464	-0.456731691791733	0.264218529429039	-0.46278061080984	-0.846181230567559	-0.960456452923567	-0.0463671790089263	-0.274542322326148
207	0.0001	-9.1920849609375	-2.0549267578125	-2.66984802246094	0.0860049635473989	0.886023645928621	-0.455593289130299	0.265020815144785	-0.461157894712475	-0.846816015250273	-0.960399455323255	-0.0479113243368525	-0.274476576805899
208	0.0001	-8.99329833984375	-1.96810729980469	-2.67823059082031	0.0838659650574685	0.88623465480579	-0.455581646388703	0.265977805537152	-0.460513822251725	-0.846866474998714	-0.960324063463277	-0.0501513323488865	-0.274340184801664
209	0.0001	-8.91306518554688	-1.90703430175781	-2.73451354980469	0.0811379826591647	0.886552326225655	-0.455457572814287	0.266915443147465	-0.459600891071478	-0.847067392322297	-0.96029827344393	-0.0528393204932039	-0.273925596157831
210	0.0001	-9.00706970214844	-2.19024536132813	-2.62913269042969	0.0786994467898322	0.887059396398827	-0.454897817466212	0.268357752050504	-0.458320037977905	-0.847305647155932	-0.960099220908639	-0.0553928700148406	-0.274118798994422
211	0.0001	-9.04119873046875	-2.29143493652344	-2.68002685546875	0.0770232206178537	0.886919140091585	-0.455457860207569	0.27029026586146	-0.458282943522633	-0.846711235225311	-0.959692969478361	-0.0578893998538209	-0.275024038437314
212	0.0001	-9.07892028808594	-1.93397827148438	-2.78959899902344	0.0753452221337557	0.886920751389864	-0.45573531600662	0.271532832560491	-0.45801215605107	-0.846460150125879	-0.95947538704403	-0.0599703732145211	-0.275337131519197
213	0.0001	-9.2208251953125	-1.84656005859375	-2.60757751464844	0.0731811266340248	0.887580305350982	-0.454802951021244	0.272177195357038	-0.45648913210132	-0.847075702992926	-0.959460315506666	-0.0617970373597356	-0.274985507147936
214	0.0001	-9.11125305175781	-2.18246154785156	-2.78660522460938	0.0712218972482453	0.888671112821697	-0.452980236421642	0.272725237213563	-0.454178253235931	-0.848140943048009	-0.959452128216498	-0.0631329353333531	-0.274710476933495
215	0.0001	-8.90109008789063	-2.29143493652344	-2.94048522949219	0.0687963104775831	0.888866995326144	-0.452970785243977	0.273448942738589	-0.453458450320857	-0.848293056406661	-0.959423130521575	-0.0655049498319032	-0.274256008444118
216	0.0001	-9.18130737304688	-2.27167602539062	-2.66445922851562	0.0666699472845071	0.888904208679893	-0.453215650568529	0.274668372477487	-0.453027113596897	-0.848129541701403	-0.959224897138127	-0.0679392532873179	-0.274357166068452
217	0.0001	-9.30465087890625	-2.13695617675781	-2.85067199707031	0.0649749819917593	0.889437432946085	-0.452414969457742	0.276063578229151	-0.451700105111686	-0.848384297248251	-0.958940640754415	-0.0697715408771398	-0.274890486545354
218	0.0001	-9.27171936035156	-2.07648193359375	-2.97700927734375	0.0626932645126508	0.89010444151522	-0.451424011080077	0.277050354282057	-0.450058247326945	-0.848935024136232	-0.95880793476949	-0.0718446741789365	-0.274819371615592
219	0.0001	-9.091494140625	-2.08606201171875	-2.90036865234375	0.0601921186936205	0.890550409536565	-0.450884549437469	0.277657001421117	-0.448814481784984	-0.849395167458533	-0.95879272963921	-0.0740643572464675	-0.274282650885288
220	0.0001	-9.02143981933594	-2.34951416015625	-2.71415588378906	0.0578573516213077	0.891106789305834	-0.450090231971787	0.278440943962964	-0.447358731093957	-0.849906351569994	-0.958709115210856	-0.0761502184307662	-0.274003606991888
221	0.0001	-9.1441845703125	-2.46267883300781	-2.55009704589844	0.0558662462540443	0.891734574435687	-0.449097329412552	0.279209304261481	-0.445807371272924	-0.850469254078327	-0.958603738227273	-0.0778796281111344	-0.273886174499497
222	0.0001	-9.19927001953125	-2.44711120605469	-2.529140625	0.0537488916308435	0.892301315855676	-0.448229202942741	0.279900475599017	-0.444345877649631	-0.851006736033989	-0.958523228934959	-0.079718898248833	-0.273638661110035
223	0.0001	-9.00347717285156	-2.33873657226563	-2.57404724121094	0.0514666971472667	0.892735789680216	-0.447631532522892	0.280391984723827	-0.443113651524356	-0.851487302744665	-0.958504832532098	-0.0816890546939593	-0.273121556007252
224	0.0001	-8.89570129394531	-2.4189697265625	-2.60877502441406	0.0493799867122336	0.892811902100303	-0.447714780167395	0.281294313339096	-0.442548089252636	-0.851483821327174	-0.958350210619994	-0.0838933618761342	-0.272995929709096
225	0.0001	-9.09867919921875	-2.37645812988281	-2.55668334960938	0.0478144512522823	0.893136016900223	-0.447238005503834	0.282477191017052	-0.441563164161863	-0.85160355131392	-0.958081632642313	-0.0856155790202223	-0.273403653637754
226	0.0001	-9.10825927734375	-2.28245361328125	-2.53692443847656	0.045929773190881	0.893334204950408	-0.447039656183048	0.283898788208424	-0.440732126459135	-0.851561313565029	-0.957753587301255	-0.0878019986813075	-0.273859224856759
227	0.0001	-9.13699951171875	-2.117197265625	-2.69798950195313	0.0439795444089564	0.89324901137529	-0.447405859763422	0.28569606011485	-0.440381632353629	-0.851141456586627	-0.957310587483724	-0.0903892779184514	-0.274565506808391
228	0.0001	-9.08371032714844	-2.42196350097656	-2.90695495605469	0.0419139869551316	0.89331702405514	-0.447468336567845	0.286748940992257	-0.439775949195618	-0.8511005577186	-0.957088429841958	-0.092638053964674	-0.274590474015932
229	0.0001	-9.32321228027344	-2.33813781738281	-2.57165222167969	0.0391127366330926	0.893911371701693	-0.446534045035167	0.286148948056968	-0.438180730030785	-0.852124654822039	-0.957386532889909	-0.0944463200558165	-0.272930246159991
230	0.0001	-9.3070458984375	-2.34532287597656	-2.70577331542969	0.0356495870104041	0.89469153348857	-0.445259662275688	0.284486830704304	-0.436194447349023	-0.853698803593926	-0.958016884037963	-0.0962365003818799	-0.270078110724361
231	0.0001	-9.68725524902344	-2.66326171875	-2.481240234375	0.0305074518235998	0.894929072529002	-0.445164296103823	0.281212538558993	-0.435066579393392	-0.855357574147877	-0.959160468086773	-0.0990910017979156	-0.264938049027028
232	0.0001	-9.30405212402344	-2.83929565429688	-2.37705688476563	0.0236734963159055	0.894842441903449	-0.445753934071763	0.276767612393376	-0.434317855090853	-0.857185913019662	-0.960645228116109	-0.103077664494079	-0.257945228256301
233	0.0001	-9.18609741210938	-2.7542724609375	-2.12498107910156	0.0149313969823851	0.894123423398278	-0.447571622329543	0.272024511303639	-0.434370498219567	-0.858676269339325	-0.962174474112762	-0.108929215580712	-0.249709245641406
234	0.0001	-9.2112451171875	-3.21651123046875	-1.79865966796875	0.00259732564489945	0.89427564416355	-0.4475090235463	0.267453406869418	-0.43182919251862	-0.861389704862241	-0.963567293474325	-0.117450503381573	-0.240298668747829
235	0.0001	-9.14657958984375	-3.6931201171875	-1.68968627929687	-0.00929779177878098	0.893034034654747	-0.449893058422002	0.26343410741931	-0.431831477034643	-0.862626249594962	-0.964632584000888	-0.126537695531188	-0.231240544657347
236	0.0001	-8.79032043457031	-3.86675903320313	-1.36695739746094	-0.0216254029736528	0.891190727796963	-0.453113041784219	0.260524952845718	-0.432537335776871	-0.863155954682457	-0.96522489135484	-0.136713349193729	-0.22282362814852
237	0.0001	-8.88911499023438	-4.30205383300781	-1.10590026855469	-0.03347554206624	0.889139086128057	-0.456411079623112	0.257990394617605	-0.433502500846633	-0.863432995689166	-0.965567369150607	-0.146653562108386	-0.214877612497202
238	0.0001	-8.66817443847656	-3.99369506835938	-0.599952392578125	-0.0467245366833616	0.886573605945039	-0.460221749717824	0.255290433422792	-0.43482610216447	-0.863569948226117	-0.965734752545713	-0.157840115680599	-0.206016711961449
239	0.0001	-8.36280944824219	-4.37629943847656	-0.168848876953125	-0.0625794076541298	0.884773050552093	-0.461801328229362	0.252963482572781	-0.433537579718187	-0.864901522403994	-0.965449788555732	-0.170943897196832	-0.196684747219631
240	0.0001	-8.19755310058594	-4.99002319335938	0.0461041259765625	-0.0787630522509076	0.883888705884921	-0.461017502063859	0.249746244366954	-0.430211319331263	-0.867493535505513	-0.965102686259199	-0.183463828392228	-0.186863128109706
241	0.0001	-8.00714904785156	-5.64685729980469	0.887953491210938	-0.0941157282029474	0.882100954989326	-0.46156270961999	0.24586769094476	-0.428665553331954	-0.869364665681842	-0.964723436148579	-0.195304246225033	-0.176535954276037
242	0.0001	-7.98200134277344	-5.872587890625	0.951421508789063	-0.106543551108766	0.877298701022795	-0.467969508516153	0.241259095044652	-0.43377419434203	-0.868120957805511	-0.96459448514667	-0.20539458976964	-0.165440447648064
243	0.0001	-7.75627075195313	-5.47621215820313	2.04474792480469	-0.116454798579354	0.871315785472976	-0.476704396742313	0.236022450841216	-0.441942438932236	-0.865436469863347	-0.96474436126196	-0.213297169827068	-0.154183769434449
244	0.0001	-7.27726684570313	-5.15408203125	2.86683837890625	-0.124438613044881	0.865679680707319	-0.4848852668353	0.229160424716493	-0.450397400027934	-0.862918119981168	-0.965401746076328	-0.2184968477085	-0.142332695520831
245	0.0001	-6.97669189453125	-5.3217333984375	3.03808227539063	-0.132035175106277	0.86051755066553	-0.492012456683012	0.222201628110148	-0.458032267108218	-0.860716491507457	-0.966019228069429	-0.222970821598487	-0.130732030183279
246	0.0001	-6.97190185546875	-4.92236389160156	3.12849426269531	-0.140716272384133	0.856134477982255	-0.497224985591398	0.215181805857693	-0.463769411559276	-0.859426973820222	-0.966382802575737	-0.22792913045948	-0.118964660188851
247	0.0001	-6.29950012207031	-4.59244995117187	3.65659606933594	-0.149592960241138	0.852739098516927	-0.500457766556612	0.209375378544465	-0.467354597668023	-0.858918873292421	-0.966324943849456	-0.233271751181104	-0.108629613804182
248	0.0001	-6.16238525390625	-4.32780029296875	3.83203125	-0.158604700286739	0.850883637349705	-0.500840877662246	0.2036628461416	-0.468158310770394	-0.85985419761615	-0.966108686509161	-0.238379595911954	-0.0990412747514737
249	0.0001	-5.49597106933594	-4.93553649902344	4.34157165527344	-0.166907541342566	0.84834303568138	-0.502449964129644	0.199221177483862	-0.470070336807627	-0.859851615626503	-0.965635953703529	-0.243614392564285	-0.0905496143040454
250	0.0001	-5.40496032714844	-4.6607080078125	4.75052124023438	-0.173775746666743	0.844919238258145	-0.50587890911926	0.196343681890092	-0.473654989262498	-0.858545345179033	-0.965013548325752	-0.248520486012762	-0.0835848047178575
251	0.0001	-5.19779113769531	-4.94212280273438	4.99900451660156	-0.178160296359034	0.840754935422462	-0.511263187960989	0.193986582571698	-0.47936945887253	-0.855905443190082	-0.964690683371315	-0.25166656604132	-0.0776905718446925
252	0.0001	-5.17503845214844	-4.30265258789063	5.49177978515625	-0.181263784796407	0.836729265860006	-0.516747110272188	0.191365134389841	-0.485397304299595	-0.853093689062722	-0.964636110489981	-0.253522371068238	-0.0721358559018952
253	0.0001	-5.06007751464844	-4.11763732910156	5.7097265625	-0.18357815633382	0.833651643550847	-0.520887701642156	0.189083197866756	-0.490051361502706	-0.850939015073246	-0.964648435857104	-0.254704927895627	-0.0676667932159259
254	0.0001	-4.78944030761719	-3.96255981445313	5.68517761230469	-0.185170203744331	0.830912749560707	-0.524686571452662	0.187549568156951	-0.494225072326828	-0.84886202492966	-0.96464353785708	-0.255588694000748	-0.0643215700178996
255	0.0001	-4.53975952148437	-3.93860961914063	6.04323303222656	-0.185968089316978	0.828853065790191	-0.527653735972743	0.186716151270123	-0.497424614933833	-0.847175206974803	-0.964651723997145	-0.256069029341952	-0.062255149194308
256	0.0001	-4.33738037109375	-3.50630859375	6.14382385253906	-0.186016278585281	0.827567822040543	-0.529650303525217	0.186890484852881	-0.499415971142479	-0.845964322202343	-0.964608672349953	-0.256349737060303	-0.0617650510918217
257	0.0001	-4.90320373535156	-3.34105224609375	5.99772766113281	-0.185362903137401	0.826990735671588	-0.530779537335268	0.18810130333449	-0.500291407020193	-0.845178328961186	-0.964499089592282	-0.256505031481104	-0.062822567605416
258	0.0001	-4.82416809082031	-3.11711791992188	5.77079956054687	-0.184058820446029	0.826760090255816	-0.531592046381632	0.191552388417793	-0.500291379878198	-0.844402876422746	-0.964069516740082	-0.257247523563908	-0.0662848286773137
259	0.0001	-6.01688781738281	-4.01105895996094	5.19419860839844	-0.182829352833509	0.827110905951937	-0.531470579616451	0.196805324600455	-0.498850349349385	-0.844047387984173	-0.963245084052542	-0.258912877642968	-0.0715753437941291
260	0.0001	-5.70373901367187	-3.29973815917969	5.04331237792969	-0.1810433769665	0.827830367713027	-0.530961559765564	0.202968176165122	-0.49681025530284	-0.843791141035583	-0.962303078619605	-0.260531097026903	-0.0780790135772002
261	0.0001	-6.45697265625	-3.11172912597656	4.50024169921875	-0.17935900029505	0.828938587456205	-0.529802951331221	0.209711023768478	-0.493942391792543	-0.843825929976224	-0.961172011412701	-0.262453294542808	-0.0852445462213801
262	0.0001	-6.59229125976563	-3.45780944824219	5.02235595703125	-0.176450128890492	0.831111366212923	-0.527370125212091	0.216843704872343	-0.489791809204833	-0.844442296011452	-0.960127158074265	-0.263358843761785	-0.0937974399474251
263	0.0001	-7.10302917480469	-4.06135437011719	4.98343688964844	-0.172799271629235	0.833204454807763	-0.525272070657582	0.223386377867314	-0.486245246857271	-0.844786414481218	-0.959290851570955	-0.263317102363689	-0.102103700692302
264	0.0001	-7.15092956542969	-4.10566223144531	4.43497741699219	-0.169470605238308	0.835549134273867	-0.522625447308446	0.229301397122378	-0.482313453471506	-0.845455263084993	-0.958488697501378	-0.263118560376461	-0.109854630978996
265	0.0001	-7.58802062988281	-4.44156372070313	4.14158752441406	-0.165850061816234	0.839135362144301	-0.51802084996118	0.232887400849378	-0.477109709211166	-0.847425385448216	-0.958257384798663	-0.261186081894478	-0.11629537868479
266	0.0001	-7.79997985839844	-4.15835266113281	3.80628479003906	-0.161141831757948	0.84271662481556	-0.51367499483347	0.235053687047477	-0.472729437161889	-0.849280073618821	-0.958531728354925	-0.257595748218163	-0.121907162368931
267	0.0001	-8.01792663574219	-3.78832214355469	3.16322204589844	-0.155074601889952	0.845245944412838	-0.511381620027864	0.236794257829862	-0.470750710089516	-0.849895433808784	-0.959103929356709	-0.252889427228316	-0.127147907134395
268	0.0001	-7.95445861816406	-3.78293334960938	3.31590454101563	-0.150410013348997	0.848778299073965	-0.506904554038984	0.236758868218245	-0.46689179881712	-0.852031270856493	-0.959855231899254	-0.248168183332232	-0.130730587764339
269	0.0001	-8.55321350097656	-3.63444213867188	2.90336242675781	-0.147509969604245	0.852906171497456	-0.500791245419592	0.233216931756796	-0.462058776036659	-0.855635173557896	-0.961171509986278	-0.243007716151271	-0.13075388438453
270	0.0001	-8.89270751953125	-3.64761474609375	2.69559448242188	-0.147713244471349	0.858152449975351	-0.491686048214764	0.226261624044547	-0.454634734735286	-0.861459770074552	-0.96280136834784	-0.238498701408372	-0.127011395292109
271	0.0001	-8.61368774414063	-3.82963623046875	3.34883605957031	-0.15158360753779	0.86074510023593	-0.485942673929413	0.21920954286955	-0.450107513773095	-0.865650277167359	-0.963830683388297	-0.23774166329199	-0.120454619232332
272	0.0001	-8.10534484863281	-3.79071716308594	3.30752197265625	-0.157879247247447	0.861106148174062	-0.483291159515058	0.213001874510468	-0.448209252574434	-0.868181241079128	-0.9642117738047	-0.240009723726972	-0.112654284307772
273	0.0001	-8.12270874023438	-3.39673645019531	3.44164306640625	-0.164617295894987	0.860230983275746	-0.48260107884739	0.207524941316703	-0.448118339737789	-0.869553536202428	-0.964279287667075	-0.24329531233275	-0.104751354994523
274	0.0001	-8.13648010253906	-3.47038330078125	3.86137023925781	-0.173600821218894	0.860149186420917	-0.479589545310946	0.199849276851042	-0.446081932707694	-0.872393933870407	-0.964325163735885	-0.247293927161997	-0.0944600030412648
275	0.0001	-7.31199462890625	-3.62426330566406	4.28468994140625	-0.183565226533354	0.859800955684398	-0.476493572057331	0.191699684967597	-0.44411285457574	-0.875222830588823	-0.964134346650446	-0.252004144816676	-0.0832998955829674
276	0.0001	-6.85694091796875	-3.91286315917969	4.684658203125	-0.192306947309903	0.859650679854775	-0.473306186988475	0.18446795352555	-0.442043943573672	-0.877820440677894	-0.963841072033373	-0.256120792937746	-0.0735698802941739
277	0.0001	-6.74317749023438	-4.18829040527344	4.90440124511719	-0.200010375872042	0.858846214508348	-0.471570810555748	0.178238642948954	-0.441371880531344	-0.879444056910922	-0.96344529460849	-0.259950077708981	-0.0648006280513898
278	0.0001	-5.93246337890625	-3.75359436035156	5.05888000488281	-0.20616210899995	0.856846991535962	-0.472557317061606	0.173251652824995	-0.443338525502652	-0.879451429357268	-0.963058175608359	-0.263180897674783	-0.0570505520831753
279	0.0001	-5.80672485351563	-3.63384338378906	4.99361572265625	-0.210036331745929	0.854459228060793	-0.475167514597188	0.170490084418195	-0.446552688115062	-0.878364291084451	-0.962713805064512	-0.26549976331245	-0.0518845373810179
280	0.0001	-6.09412719726563	-3.57516540527344	5.09360778808594	-0.211878038329838	0.851024621105174	-0.480483913514589	0.170561445556713	-0.451900821526688	-0.875610895771123	-0.962297506056783	-0.267474749792012	-0.0494041299953353
281	0.0001	-6.2797412109375	-2.86025207519531	5.11456420898438	-0.213346767636912	0.848014477023373	-0.485133593454068	0.172105093722226	-0.456178340994386	-0.873087142227208	-0.961697974134159	-0.269764282228736	-0.0486234365287909
282	0.0001	-5.94803100585938	-2.29981750488281	5.20617370605469	-0.215889520025661	0.847085691913098	-0.485631079832415	0.173070288918846	-0.456286776342127	-0.872839648978469	-0.960957017892391	-0.272485244171896	-0.0480978322998616
283	0.0001	-5.15827331542969	-2.58003479003906	5.12594055175781	-0.21862404769436	0.847105516076902	-0.484371521047449	0.177616548611574	-0.453541963148707	-0.873356770926137	-0.959508148703828	-0.276969190155334	-0.0513047782925894
284	0.0001	-5.49537231445313	-3.67934875488281	5.19120483398437	-0.219594808340563	0.845860883018692	-0.486104399001604	0.185840417403963	-0.452874653245531	-0.871990761250864	-0.957727236434775	-0.281822488503986	-0.0577462168841277
285	0.0001	-6.52103942871094	-3.18597473144531	4.93433898925781	-0.217967338888102	0.842746396450396	-0.492208035740897	0.196356873551723	-0.456153121312016	-0.867967918834733	-0.955999067670587	-0.285837088543768	-0.0660525656260984
286	0.0001	-6.83299072265625	-2.92791137695313	4.8906298828125	-0.215668780232234	0.83897420126276	-0.499609114056834	0.208368082525905	-0.460323793258703	-0.862951184913954	-0.953975743621198	-0.290214222558842	-0.0755379746018445
287	0.0001	-7.25750793457031	-2.94647277832031	4.62598022460937	-0.213000168844609	0.83467892296765	-0.507879930323823	0.22162073033213	-0.464985988144253	-0.857130260063525	-0.951585613573062	-0.295125611194751	-0.0859400585158229
288	0.0001	-7.79518981933594	-2.54590576171875	4.34396667480469	-0.211712408704777	0.830376784143454	-0.515414641192891	0.235697104223387	-0.468423241289072	-0.851484904200274	-0.948485493331939	-0.301751658447497	-0.096546390730332
289	0.0001	-7.91613830566406	-3.56558532714844	4.02782409667969	-0.210576635613772	0.824809139195252	-0.524735518555369	0.252569677333735	-0.472643702444212	-0.844284601678463	-0.944386593840212	-0.310318891529044	-0.108794057443721
290	0.0001	-8.51369567871094	-3.30093566894531	3.63504089355469	-0.211219718706165	0.818585290482438	-0.534138888900136	0.267812411066375	-0.477087944455928	-0.837056512867341	-0.940033373295068	-0.319851864869663	-0.118456918881486
291	0.0001	-8.63344665527344	-3.49433349609375	2.39681579589844	-0.211151766351359	0.809670472484996	-0.547584383956139	0.282811744295906	-0.485647011145018	-0.827142368552245	-0.93564547177604	-0.329515866919688	-0.126439094401843
292	0.0001	-9.02862487792969	-3.21770874023438	2.06031555175781	-0.212158387154696	0.798468973206873	-0.563414694151546	0.29589374879473	-0.49698826641458	-0.815750913251362	-0.931362286215262	-0.339779284053916	-0.130821748741135
293	0.0001	-9.283095703125	-3.10813659667969	2.02379150390625	-0.213712383209594	0.78559872134602	-0.580656237616004	0.308553000477989	-0.509678416780379	-0.803133212713978	-0.926888376860399	-0.350802737286561	-0.133474253522358
294	0.0001	-9.57349182128906	-3.42128540039063	1.61963195800781	-0.215205254374236	0.773875197198585	-0.59565415943362	0.319150146435072	-0.520721218022425	-0.791828641267613	-0.922946305328859	-0.360508796372702	-0.134920440325821
295	0.0001	-9.41661804199219	-2.37346435546875	1.28492797851563	-0.217746399277143	0.763465507729517	-0.608035298407214	0.326667701449337	-0.530044269189208	-0.782522386599569	-0.919714476580447	-0.369016925366559	-0.133984291472417
296	0.0001	-9.19867126464844	-3.16322204589844	1.42383911132813	-0.220024099691148	0.751614045073056	-0.621824511260226	0.334051443705933	-0.540851015997267	-0.771938994644464	-0.91651460900145	-0.377566558031353	-0.132077499004469
297	0.0001	-8.60171264648438	-1.99565002441406	1.0969189453125	-0.222789501015409	0.741996346171608	-0.632302348963918	0.339585599453025	-0.548912221054895	-0.763791198051347	-0.913808764940146	-0.384885432102289	-0.129679394176559
298	0.0001	-8.51728820800781	-2.8213330078125	1.05440734863281	-0.225015770362733	0.733587600763524	-0.641262142258595	0.343152920002664	-0.556308596970006	-0.756813595564264	-0.911928712445064	-0.390345970830083	-0.126554519773135
299	0.0001	-8.06941955566406	-1.76033935546875	1.41425903320313	-0.225938870278222	0.729364579301564	-0.645739062902078	0.346907277420172	-0.559180151940349	-0.752976027871334	-0.910278511099941	-0.394138133319046	-0.126681348640807
300	0.0001	-8.44064758300781	-2.08725952148438	1.22924377441406	-0.225092492359039	0.730900561790329	-0.644296312777109	0.350641058619896	-0.556194901472102	-0.753457417234947	-0.909056773746016	-0.39551434910888	-0.131088450122293
301	0.0001	-8.70469848632812	-2.37765563964844	0.937650146484375	-0.224955025688619	0.733111093539955	-0.641828139727517	0.354334930482283	-0.552061134524741	-0.754768349089554	-0.907657420758267	-0.39721106263032	-0.135577941666569
302	0.0001	-8.8088818359375	-2.67403930664062	0.586181030273437	-0.224611912539149	0.737064540872083	-0.637405170464228	0.358035796873399	-0.545942330509866	-0.757467715427322	-0.906289058139143	-0.398350140387176	-0.141270339246361
303	0.0001	-8.93761413574219	-2.70816833496094	0.448467407226563	-0.225038055196181	0.743243552675341	-0.630037217249948	0.360159134514149	-0.537373039919812	-0.762571710590787	-0.905341522045432	-0.39852131357542	-0.146756570846358
304	0.0001	-8.995693359375	-3.21890625	0.55324951171875	-0.226855395331781	0.752519920159968	-0.618264020764023	0.359266885663699	-0.525385350736502	-0.771296011980478	-0.905242472752117	-0.397094450973464	-0.151168986672911
305	0.0001	-8.84600463867188	-3.47517333984375	0.448467407226563	-0.229339621171248	0.761712340993289	-0.60596835539453	0.358157477851624	-0.512842332864575	-0.780202513890454	-0.905056108326987	-0.395963446798493	-0.155197904558872
306	0.0001	-8.78852416992187	-3.58833801269531	0.273630981445313	-0.232381996232004	0.770027512812692	-0.59418535604534	0.355950135184509	-0.501198929690675	-0.788732612574788	-0.905150876423019	-0.394787616812408	-0.157621789490606
307	0.0001	-8.93282409667969	-3.37937255859375	0.483195190429688	-0.234582594448364	0.777652350976223	-0.583290517155069	0.35463444399532	-0.490218560634221	-0.796191041108755	-0.905099672695778	-0.393627468338867	-0.160785567309787
308	0.0001	-9.01545227050781	-3.46798828125	0.135917358398437	-0.237564772056564	0.78593212564244	-0.570853460146183	0.350822701930024	-0.478591325363837	-0.804906066008329	-0.905807049480313	-0.391485679392801	-0.162026392733179
309	0.0001	-9.206455078125	-3.52966003417969	0.128133544921875	-0.240914321343944	0.793728866300715	-0.558529118822259	0.344939703633646	-0.467883060483712	-0.813696529776014	-0.907180737575771	-0.388690015968222	-0.161068869922477
310	0.0001	-9.14657958984375	-3.26620788574219	0.252075805664063	-0.246414443953185	0.801973235451783	-0.544168036024023	0.337543913222147	-0.455309984762474	-0.823867055065485	-0.908484467923323	-0.386693350595268	-0.158506227472243
311	0.0001	-9.55313415527344	-3.77335327148438	0.173638916015625	-0.255554156192	0.811365326979645	-0.525717014588845	0.326378301688856	-0.439448123072919	-0.836876664338532	-0.910038063731234	-0.385449936182252	-0.152509243186782
312	0.0001	-8.72445739746094	-4.24696838378906	0.829275512695313	-0.26848686487164	0.820320468229649	-0.504964486667021	0.314125978737782	-0.420996644488646	-0.850932838014453	-0.910625978584747	-0.387086753496927	-0.144651900761037
313	0.0001	-7.77183837890625	-5.14210693359375	1.02686462402344	-0.281114001599663	0.826444044985413	-0.487816726458588	0.302909613120453	-0.405917704047052	-0.862250882180116	-0.910615552460995	-0.390155171757748	-0.136228695827419
314	0.0001	-8.11013488769531	-5.49537231445313	1.52023864746094	-0.292673666984574	0.827852499496703	-0.47854191428846	0.291551564741944	-0.399367795055547	-0.869196784030518	-0.910680959365203	-0.393910654018816	-0.124477254549342
315	0.0001	-8.10414733886719	-5.04929992675781	2.46148132324219	-0.306284690671039	0.826549979060472	-0.472233861953671	0.279167027138774	-0.396273914594687	-0.874661509139565	-0.910085413144857	-0.399727553124545	-0.109372867083292
316	0.0001	-7.58921813964844	-5.21515502929688	3.30213317871094	-0.32007699592493	0.824866846780911	-0.465988628360597	0.266417297984282	-0.393647558808089	-0.879808742158878	-0.909160348901351	-0.405753970437937	-0.0937612684397089
317	0.0001	-7.04914123535156	-5.33310974121094	3.74640930175781	-0.33060355825815	0.822562654541114	-0.462700731165757	0.257150926497583	-0.393207349053495	-0.882757827295662	-0.908060949644067	-0.410826800494563	-0.0815269999872188
318	0.0001	-6.78030029296875	-5.34209106445313	4.09727966308594	-0.3422315602657	0.819499731056355	-0.459671349941093	0.246717583808052	-0.393673347819719	-0.885523420953015	-0.906646564543219	-0.416463066807823	-0.0674575495182084
319	0.0001	-6.18693420410156	-5.23012390136719	3.91885070800781	-0.351352780550854	0.81603515080592	-0.458953000042861	0.238684572079866	-0.395936541106576	-0.886715247679666	-0.905307074229642	-0.421094868249091	-0.0556615961327569
320	0.0001	-5.78516967773438	-4.73615112304688	4.12601989746094	-0.359016122158505	0.812305460633867	-0.45963818668021	0.233608082268863	-0.398587323425327	-0.886879591321899	-0.903623089528446	-0.42577926702581	-0.0466618456775039
321	0.0001	-5.50974243164063	-5.03612731933594	4.21703063964844	-0.364263894102384	0.809189945612917	-0.461002654409204	0.232008266264766	-0.400556369661822	-0.88641229634305	-0.901933467523068	-0.42984442143909	-0.0418305333400041
322	0.0001	-5.968388671875	-4.96487548828125	4.21343811035156	-0.362301326168948	0.806943875474841	-0.466453996541851	0.24301509260088	-0.401362674458969	-0.883092106362258	-0.899822990273313	-0.433300802428045	-0.0506853113910311
323	0.0001	-5.78397216796875	-4.94691284179688	3.94998596191406	-0.364110220040069	0.803965902730982	-0.470172920220135	0.245158693439568	-0.404288471091732	-0.881162894800566	-0.898510413235916	-0.436107394328813	-0.0498936661146171
324	0.0001	-5.83247131347656	-4.63795532226563	4.3062451171875	-0.362895131988786	0.801181537264016	-0.475831133414061	0.249890406683219	-0.408263788697541	-0.877995138646009	-0.897698116198612	-0.437525797165833	-0.0520506386883554
325	0.0001	-6.13963256835938	-4.23798706054688	4.1625439453125	-0.360299166243423	0.798563625863087	-0.482162468730918	0.255490578325847	-0.412636815049587	-0.87433141499803	-0.897167250400402	-0.438208847827303	-0.0553527821780371
326	0.0001	-6.41565856933594	-4.23259826660156	4.13200744628906	-0.35666260398675	0.797389144960707	-0.48678777554107	0.261960475679316	-0.414792884461493	-0.871391744384798	-0.896754423518087	-0.438312005880453	-0.060943329428219
327	0.0001	-6.35518432617188	-3.9422021484375	4.07273071289063	-0.350611975416959	0.797656414843656	-0.490729545221178	0.271198654680949	-0.415064975859567	-0.86843097337321	-0.896394183600865	-0.437567491563831	-0.0707965954907133
328	0.0001	-6.77910278320313	-4.58945617675781	3.58175170898438	-0.34380221421285	0.796109048650864	-0.498006445900611	0.2824094940913	-0.418125194381359	-0.863374889298181	-0.895569603743583	-0.437471947077487	-0.0810763860245074
329	0.0001	-6.78988037109375	-4.2008642578125	2.88719604492187	-0.335020986013772	0.794554199524842	-0.506403557400417	0.295794658105563	-0.421598034406171	-0.857181787966279	-0.894576133801128	-0.436965354922208	-0.0937806986065663
330	0.0001	-7.4868310546875	-4.32959655761719	2.95784912109375	-0.326069003411007	0.790341416515097	-0.518690129417808	0.30821436713131	-0.429818598127011	-0.848681257362254	-0.893690611402178	-0.436596401777477	-0.103444057570073
331	0.0001	-7.80656616210938	-3.92843078613281	1.82320861816406	-0.315707569100281	0.783632606533682	-0.535022119907223	0.324002000981605	-0.44093705006887	-0.837016858394428	-0.891824777729744	-0.43760079507902	-0.114691368347852
332	0.0001	-8.28317504882813	-3.24884399414063	1.3076806640625	-0.310553123745863	0.773447563939796	-0.552571826251829	0.333346833769685	-0.455781726278573	-0.825313822982658	-0.89018910673374	-0.440501854509284	-0.116281857684113
333	0.0001	-10.2967877197266	-3.38236633300781	1.79746215820313	-0.307334136400969	0.761606795863414	-0.57052678911453	0.34540020402862	-0.469376046957772	-0.812640649733499	-0.886704250389981	-0.446812281654119	-0.118803860641739
334	0.0001	-9.43458068847656	-3.05185363769531	0.722697143554688	-0.301594345609647	0.746735898835832	-0.592812236788454	0.357420064322917	-0.487872348252911	-0.796386507563753	-0.883907092581393	-0.452068655405384	-0.119758851381756
335	0.0001	-9.27171936035156	-2.37645812988281	0.43349853515625	-0.300541939629843	0.735030687270946	-0.607786501407799	0.367490968720595	-0.498802859011014	-0.78494974090781	-0.88012779210313	-0.459266367822029	-0.120205960564484
336	0.0001	-9.82856140136719	-3.13029052734375	0.401165771484375	-0.300506491065504	0.721500074910231	-0.623805651410781	0.376849042274811	-0.511001028121958	-0.772568928054229	-0.87617386868364	-0.467242539975582	-0.11833748633933
337	0.0001	-8.94060791015625	-2.682421875	0.134719848632812	-0.300784297225038	0.710017986285154	-0.63671285968984	0.386279819017653	-0.519713340223288	-0.762027522740251	-0.871961414262426	-0.475155241100767	-0.117944007443968
338	0.0001	-8.8567822265625	-2.7590625	-0.427510986328125	-0.301784801938882	0.70030845856135	-0.646911119232106	0.39262539984704	-0.527042120328695	-0.75370544564464	-0.868775706792992	-0.481450585488126	-0.11590558666207
339	0.0001	-8.68613708496094	-2.70517456054688	-0.14130615234375	-0.304292838239286	0.690691354260463	-0.656011678056212	0.397039873941136	-0.53403556732635	-0.746435095189951	-0.865889835427745	-0.487597647636113	-0.111728809725344
340	0.0001	-8.80349304199219	-2.82432678222656	-0.0748443603515625	-0.307437310680649	0.680731220695027	-0.664896461994279	0.400294039339851	-0.541385888801392	-0.739368650590295	-0.863276886097639	-0.493463600053526	-0.106050428343207
341	0.0001	-8.9525830078125	-3.00814453125	-0.280816040039063	-0.309610449622098	0.670829828415806	-0.673890726151075	0.404006037712101	-0.548755722505682	-0.731878595471568	-0.860767384940305	-0.498853183135968	-0.101118794979675
342	0.0001	-8.44723388671875	-2.57165222167969	0.0137713623046875	-0.31060662917653	0.661261263672905	-0.682830186120463	0.406722507706328	-0.55682080184737	-0.72424263638309	-0.859127652701663	-0.502676969629368	-0.0959976070929153
343	0.0001	-9.08071655273438	-2.44531494140625	-0.205372924804688	-0.311312922241498	0.656578133521908	-0.687014860848255	0.408685370632989	-0.560170895736303	-0.720544818453762	-0.857939702004771	-0.50508783607495	-0.093945439341611
344	0.0001	-8.95916931152344	-2.17108520507813	-0.145497436523437	-0.310098291248847	0.661623775027623	-0.682710062971642	0.409998259239015	-0.554831110465336	-0.723922555444144	-0.857753156325014	-0.504397084823059	-0.09921241674547
345	0.0001	-8.80708557128906	-3.31710205078125	-0.288001098632813	-0.310316781399508	0.669649657893588	-0.674739083546263	0.40998014256772	-0.546104764108439	-0.730538068356617	-0.857682795608028	-0.503327847730549	-0.105077589508569
346	0.0001	-8.96455810546875	-2.86025207519531	-0.616717529296875	-0.310379790194433	0.677706386938338	-0.666617160701585	0.409812929432417	-0.537347148744483	-0.73709660466332	-0.857739907378035	-0.501968220945467	-0.11095114443737
347	0.0001	-8.89450378417969	-2.90994873046875	-0.599353637695313	-0.310174721064039	0.687835838211644	-0.656257192024995	0.408189336929092	-0.52707673833027	-0.745366740020315	-0.85858785667527	-0.499071108743844	-0.117281374424741
348	0.0001	-9.96747253417969	-2.80037658691406	-0.810714111328125	-0.309141673642098	0.700869519082323	-0.642816725699539	0.407341558206194	-0.513200718398947	-0.755445482872824	-0.859362717701852	-0.495385647608122	-0.126841553002042
349	0.0001	-9.83275268554688	-2.84827697753906	-1.30588439941406	-0.311900456728402	0.715633351865119	-0.624969607893784	0.403189655992127	-0.495926051645564	-0.76908741544781	-0.860323315035438	-0.491859997354467	-0.133856402943224
350	0.0001	-9.50223999023438	-3.64581848144531	-1.11488159179688	-0.316090736058171	0.728689752262488	-0.607534271894053	0.39723598307583	-0.479878971451902	-0.782252993927184	-0.861562661869688	-0.488597398382245	-0.137776492792203
351	0.0001	-9.13759826660156	-3.60869567871094	-0.5700146484375	-0.323013718126183	0.736891387694503	-0.593846125392738	0.387583221831737	-0.469446660417912	-0.793346758471351	-0.863389474140627	-0.486426680769197	-0.133969026939186
352	0.0001	-9.88783813476562	-3.45242065429688	-0.06945556640625	-0.335351493185228	0.743325848435557	-0.578797079351647	0.374917962117682	-0.458327333982585	-0.80583656941463	-0.864277673956676	-0.487239918286644	-0.124985456466192
353	0.0001	-9.61061462402344	-3.1949560546875	0.794547729492188	-0.354457008069922	0.747080463455625	-0.562344210028918	0.356486703005964	-0.448006589879276	-0.819882507439133	-0.864452115510198	-0.491081333943443	-0.107525175853246
354	0.0001	-7.970625	-2.48243774414063	0.799337768554688	-0.374440140664742	0.754070476132518	-0.539603834386159	0.333147022928306	-0.43367746417703	-0.83721975500999	-0.865336721844725	-0.493256093819689	-0.0888300835121025
355	0.0001	-7.97840881347656	-4.04997802734375	2.20521423339844	-0.392352274105497	0.759393744818279	-0.519019106907554	0.317100620058485	-0.418002700225999	-0.8513054324755	-0.863427408507959	-0.498592903012713	-0.0767999173345016
356	0.0001	-7.59879821777344	-4.95888793945312	2.60638000488281	-0.410013705549915	0.758869553804615	-0.505970119245803	0.303743423017141	-0.409470507846608	-0.860275442040322	-0.860016682532995	-0.506409817748655	-0.0626131156605103
357	0.0001	-6.38212829589844	-4.66489929199219	3.44224182128906	-0.424951117357247	0.757395677311261	-0.495750275690336	0.293733529152132	-0.402650455583866	-0.866944764370798	-0.856234291364613	-0.514027624363051	-0.0513657442564367
358	0.0001	-6.52942199707031	-5.07564514160156	3.92723327636719	-0.439610026224771	0.755634121494924	-0.485551335365531	0.283242527721462	-0.396378458022953	-0.873302804590311	-0.852359487148828	-0.521441456395577	-0.039775774278404
359	0.0001	-5.61512329101563	-5.16785339355469	4.1242236328125	-0.451402049630134	0.752711055497887	-0.479230901049766	0.275218204322342	-0.393435041745447	-0.877190861749223	-0.848817488980582	-0.527858820953117	-0.0295624008274914
360	0.0001	-5.09480529785156	-5.32472717285156	4.26014099121094	-0.461863219920467	0.749354974063358	-0.474499198030095	0.268856599375548	-0.391524651769117	-0.88001396354222	-0.845220974099031	-0.534018323565378	-0.020638193707502
361	0.0001	-5.25826538085937	-5.11157043457031	4.19248168945313	-0.466035764542055	0.745002728035781	-0.477264707879125	0.267965898296372	-0.395239496385262	-0.878623934255915	-0.843211090722792	-0.537360843117889	-0.0154395843762338
362	0.0001	-5.34927612304688	-5.04031860351563	4.4834765625	-0.459398088751071	0.741395934723198	-0.489168134722387	0.285491979358196	-0.398251021483899	-0.87171695727981	-0.841099117687091	-0.540118683127095	-0.02870683477938
363	0.0001	-6.0689794921875	-5.1732421875	4.60203002929688	-0.459738616863794	0.739662328324964	-0.49146723616235	0.288170283398525	-0.399217802227587	-0.870392459842449	-0.839998983291158	-0.541779278342637	-0.0296128625491031
364	0.0001	-6.35757934570313	-5.37322631835938	4.40982971191406	-0.458074436739839	0.738734777599406	-0.494407462292628	0.293646446058792	-0.399212279583605	-0.868562790215366	-0.839011069725853	-0.543047405108263	-0.03405790191221
365	0.0001	-5.72230041503906	-5.06846008300781	4.25115966796875	-0.451387265822823	0.739547436264935	-0.499318661544867	0.30298852751598	-0.399297774852405	-0.865308753677909	-0.83931370085725	-0.541877178437956	-0.0438364579023666
366	0.0001	-6.428232421875	-4.57748107910156	3.46559326171875	-0.442409164565815	0.742438914816162	-0.503049290700999	0.313312377337446	-0.397629092367511	-0.862395767098927	-0.840303210344537	-0.539143360034778	-0.0567005468675114
367	0.0001	-7.31977844238281	-3.95058471679688	2.63092895507812	-0.42985342831725	0.742115909191521	-0.5142859199791	0.328571936839087	-0.401968556180269	-0.854670557679484	-0.840991386689375	-0.536362990116948	-0.0710508996923339
368	0.0001	-8.8088818359375	-4.71519470214844	2.49441284179687	-0.416731882519494	0.741764281360669	-0.525471492080444	0.338927268293629	-0.409589467083761	-0.846973892904061	-0.843482569410167	-0.531057642211776	-0.0807151519213857
369	0.0001	-7.70896911621094	-2.66326171875	2.03157531738281	-0.405292350092822	0.736496309917072	-0.541582215766705	0.348053486940723	-0.423490938803912	-0.836369652115251	-0.845338323504052	-0.52747380051479	-0.0847024709547588
370	0.0001	-8.25682983398437	-3.23866516113281	1.66992736816406	-0.394533601920811	0.72750727777465	-0.561316664406385	0.35719536177684	-0.441401040049837	-0.823150408715221	-0.846613672509784	-0.525260204687011	-0.0857146830575455
371	0.0001	-9.64414489746094	-2.75008117675781	1.32803833007813	-0.38653850689158	0.719683227596653	-0.576753010053777	0.362474115671353	-0.456489406958714	-0.812545344459466	-0.848056895590324	-0.5231381015091	-0.0844158077089583
372	0.0001	-8.68553833007813	-2.11360473632813	0.973575439453125	-0.382291821722959	0.709926424974429	-0.591487475917089	0.372458267322434	-0.467419956481022	-0.801743988681206	-0.845652293881423	-0.526804570411368	-0.0857271394995894
373	0.0001	-10.4542602539063	-2.56207214355469	0.874780883789062	-0.378303923233202	0.704600069070181	-0.600353965867357	0.382564940327866	-0.471570551723816	-0.794522045747525	-0.842929539225138	-0.530245186129201	-0.0911582935804788
374	0.0001	-9.80640747070313	-2.90635620117188	0.236508178710938	-0.378723026287954	0.698256770070666	-0.607458930636282	0.390805472443647	-0.474313046469824	-0.78885880654057	-0.838951698292215	-0.536157268904373	-0.0932492945475304
375	0.0001	-9.74713073730469	-3.33506469726563	-0.820892944335938	-0.383326283952173	0.683992960119638	-0.620656580194066	0.397525384737869	-0.484379624572746	-0.779326598922284	-0.833687308599829	-0.545463114981701	-0.0862291231199329
376	0.0001	-9.48547485351563	-2.70996459960938	-1.14541809082031	-0.38825403481414	0.666119922365329	-0.636822623246496	0.402663038238854	-0.498954787342663	-0.767402500532865	-0.828927790634864	-0.554372049454016	-0.0745006623954321
377	0.0001	-8.29036010742188	-2.10582092285156	-1.18733093261719	-0.396547182331406	0.648176841843106	-0.650090081360514	0.403347379221792	-0.513116001437869	-0.757642963897458	-0.82465824670583	-0.562653313121597	-0.0579657258503299
378	0.0001	-8.78612915039063	-2.23275695800781	0.0832269287109375	-0.400014614021103	0.63547401032388	-0.660424931973675	0.405665271583559	-0.523394396133358	-0.74932902888333	-0.821841831498365	-0.567654021653227	-0.0484243296322364
379	0.0001	-8.72984619140625	-1.96152099609375	0.556842041015625	-0.402748860738808	0.630368076358758	-0.663648584328597	0.404490273595488	-0.527839060509609	-0.746842382813791	-0.821085241458059	-0.569229316276044	-0.0423911753985277
380	0.0001	-8.84121459960938	-2.02319274902344	0.7520361328125	-0.404900212839035	0.631908293598522	-0.660868917505059	0.404447378474798	-0.524441265795407	-0.749255414912549	-0.820047642328035	-0.570660378169289	-0.043227272640272
381	0.0001	-8.34484680175781	-3.02011962890625	0.258063354492188	-0.404046596575838	0.636833985344009	-0.656649695733082	0.406912597975885	-0.517787147132247	-0.752541432662126	-0.819248732317602	-0.57126083830026	-0.0499256369061705
382	0.0001	-9.05916137695313	-3.00095947265625	0.137114868164063	-0.403981186178921	0.640623208646505	-0.652993955375491	0.406495957746106	-0.513766661139615	-0.755516283237845	-0.819487789750127	-0.570653767572692	-0.052858679566779
383	0.0001	-8.45741271972656	-2.84887573242188	0.27542724609375	-0.403449913611808	0.644985335194794	-0.649016243702948	0.40613139896122	-0.509376995029026	-0.758678036925416	-0.819930151893701	-0.569674463460369	-0.05644069185183
384	0.0001	-9.03820495605469	-3.55121520996094	0.0640667724609375	-0.402078724773685	0.652939935440391	-0.64187392826899	0.405169109764528	-0.501780289594704	-0.764234606300235	-0.821078980109093	-0.567349964026925	-0.0627959134152829
385	0.0001	-8.84600463867188	-2.73810607910156	-0.188009033203125	-0.401847025477525	0.661179533904711	-0.63353026136122	0.404377164249956	-0.492603391487225	-0.770597824892108	-0.821582666046473	-0.565847614328127	-0.0694146973712122
386	0.0001	-9.34776123046875	-3.64162719726563	-0.553848266601562	-0.403744570954522	0.670408625066587	-0.622529193581375	0.403355921887054	-0.480309739283601	-0.778849507047391	-0.821154261818931	-0.56555709683961	-0.0764908393924296
387	0.0001	-9.225615234375	-3.30692321777344	-0.465831298828125	-0.405568707171125	0.679827832927442	-0.611022210186111	0.401068461413615	-0.468331422873395	-0.787279980444503	-0.821375744116454	-0.564357861579476	-0.0827169332759842
388	0.0001	-8.43046875	-3.66198486328125	0.0622705078125	-0.410405281186241	0.688996256556262	-0.597370625010889	0.395912350892762	-0.455493644782056	-0.797357479411666	-0.821474841723719	-0.563746129046237	-0.0858451303241768
389	0.0001	-9.34416870117188	-3.611689453125	0.369431762695313	-0.420889073586659	0.693667404744665	-0.584532222661989	0.385878781288409	-0.446262931741593	-0.807432326517071	-0.820944549824613	-0.565398025596304	-0.0798443408455795
390	0.0001	-9.82377136230469	-4.18709289550781	0.608933715820313	-0.429760635286318	0.696684247540402	-0.574401301867749	0.376688696979983	-0.439810158834791	-0.815274585494506	-0.820616488943418	-0.566743401739077	-0.0734199881462577
391	0.0001	-8.88312744140625	-3.97872619628906	1.887275390625	-0.442767003724584	0.691589093702949	-0.570667947132032	0.364700668031568	-0.4425199081974	-0.819249384245294	-0.819115866742967	-0.570859576708755	-0.0562897906357708
392	0.0001	-7.28804443359375	-3.15424072265625	3.12011169433594	-0.451220791309801	0.690292341927106	-0.565593741272433	0.356445030542216	-0.441623953702981	-0.823356073468525	-0.818136136404887	-0.573118457382537	-0.046781365050043
393	0.0001	-6.99405578613281	-3.36679870605469	3.7218603515625	-0.459361737025708	0.68897214526509	-0.560628377452965	0.349637123447469	-0.439957683679094	-0.827158460320092	-0.816541901229878	-0.575981440343824	-0.0387905132132826
394	0.0001	-7.13176940917969	-4.30444885253906	4.36911437988281	-0.46675344751861	0.685558141732351	-0.558704978977258	0.345234222150998	-0.440378979034967	-0.828782050167543	-0.814220210437746	-0.579720957986346	-0.0311297251209548
395	0.0001	-6.73539367675781	-3.81526611328125	4.9576904296875	-0.472979863920738	0.681336433008027	-0.558632896794861	0.341704920286321	-0.442561187296324	-0.829082229305989	-0.812113166854004	-0.583026809464853	-0.0234934813851578
396	0.0001	-6.38691833496094	-4.07871826171875	5.61572204589844	-0.479544663857734	0.67975207068881	-0.554954086172764	0.337194482001465	-0.441119289250808	-0.831693245108211	-0.810146157599563	-0.585961513279787	-0.0176722460803953
397	0.0001	-5.90911193847656	-4.63496154785156	5.45226196289063	-0.485304054004958	0.680607477106764	-0.548865591263215	0.332710012195369	-0.436768968053844	-0.835785209446864	-0.808569120701076	-0.588223027984748	-0.0144791711483582
398	0.0001	-5.40735534667969	-4.70501586914063	5.01756591796875	-0.489106981180132	0.677211385751076	-0.549690003520135	0.331005992131575	-0.438957512143424	-0.835315111623061	-0.806975460676376	-0.590509137560092	-0.00946384299252245
399	0.0001	-5.07744140625	-3.669169921875	5.585185546875	-0.490835559754357	0.671072197422322	-0.555646073618273	0.330637048097117	-0.446574651579662	-0.831414591519856	-0.806076668627899	-0.591805023984488	-0.00268661133555181
400	0.0001	-5.65643737792969	-2.94767028808594	6.00611022949219	-0.492740775349566	0.666071143120102	-0.559960499152029	0.329874702567402	-0.452491929895999	-0.828512965490017	-0.80522618494059	-0.592958924109989	0.00324120415090356
401	0.0001	-5.37023254394531	-2.86324584960938	6.27854370117188	-0.494939272285798	0.662658449621244	-0.562066629408626	0.328996397898638	-0.45578241177769	-0.827057291415675	-0.804236586409078	-0.594261030406404	0.0075723722434311
402	0.0001	-5.40076904296875	-3.23447387695313	6.58091491699219	-0.497775937214351	0.659976308220689	-0.562716970525827	0.32733320421751	-0.457869631579108	-0.82656419828971	-0.803163800072608	-0.595639717501278	0.0118843253037584
403	0.0001	-5.10797790527344	-3.04287231445313	6.83478698730469	-0.501400259956587	0.653679020466709	-0.566834647421231	0.326717636043361	-0.463587475467531	-0.823615346437814	-0.801157516106355	-0.598155824841091	0.0188744164140157
404	0.0001	-5.02175720214844	-2.37526062011719	7.09584411621094	-0.505792585357592	0.648417832055162	-0.56897115539381	0.325024346794685	-0.467711099053081	-0.82195225032434	-0.799082620626911	-0.600666831858929	0.0258132236767445
405	0.0001	-5.35346740722656	-2.42914855957031	6.86053344726563	-0.51041065663249	0.644773462735898	-0.568988702302207	0.322436442262105	-0.469896981483792	-0.821724751661879	-0.797192387255013	-0.602879762924565	0.0319419654791858
406	0.0001	-4.70621337890625	-2.27945983886719	7.13356567382813	-0.51425179677577	0.64206654179091	-0.568590929777775	0.320382370733951	-0.471157483809684	-0.821806401759576	-0.795550266190507	-0.604781928766717	0.0365867817855596
407	0.0001	-4.71699096679688	-2.13276489257813	7.08626403808594	-0.517872230477284	0.63936460499427	-0.568349588528929	0.318350244590003	-0.472623744632771	-0.821754171135615	-0.794016041821554	-0.606497896030825	0.0412168344273829
408	0.0001	-4.58346862792969	-2.2465283203125	7.1515283203125	-0.521107014824165	0.636532544343359	-0.568571718512993	0.316739836397026	-0.474370583854264	-0.821369846788248	-0.792542336497069	-0.608110902028187	0.0455826249159934
409	0.0001	-4.54095703125	-2.05313049316406	7.43653564453125	-0.524652374081939	0.63201623087514	-0.570346710589767	0.315153981477238	-0.478168566531037	-0.819776060848753	-0.790833645167699	-0.609844493204649	0.0516898421233278
410	0.0001	-4.24217834472656	-1.39929016113281	7.34492614746094	-0.527774345031832	0.627897229013086	-0.572013383168532	0.31416979053724	-0.481374982502728	-0.818275912473467	-0.789146110324323	-0.611574358535564	0.0567910251871327
411	0.0001	-3.98171997070312	-1.31306945800781	7.33115478515625	-0.530755135917817	0.624205282206669	-0.573294646200496	0.315517839002462	-0.482285720864528	-0.817220274296593	-0.786605033652897	-0.614628545639946	0.0590277215929051
412	0.0001	-3.44703186035156	-1.60346557617188	7.19643493652344	-0.533016762952787	0.620237563544903	-0.575498475392607	0.318207980210203	-0.483291622536645	-0.815581319622047	-0.783987762494974	-0.617846722378439	0.0602379938605624
413	0.0001	-3.37937255859375	-1.01728454589844	6.715634765625	-0.532651248731043	0.614918889381101	-0.581513032276642	0.324477502760347	-0.486216879588524	-0.811361507717496	-0.781662969205827	-0.620860616793747	0.0594566824403934
414	0.0001	-3.95058471679688	-2.18665283203125	7.03297485351563	-0.530847015542637	0.618234809948529	-0.579643999242105	0.332315222342073	-0.477338972212897	-0.813458111156607	-0.779594791599594	-0.624446335063824	0.0479451304737519
415	0.0001	-5.66422119140625	-3.31231201171875	6.53061950683594	-0.525539285573408	0.624545666703524	-0.577712012616012	0.341488521815938	-0.467090515865725	-0.815605320885204	-0.77922657089383	-0.625914658871433	0.0321992394770522
416	0.0001	-6.24381591796875	-3.03269348144531	5.46902709960938	-0.520861911493013	0.624372100552711	-0.582118844573203	0.353817994598339	-0.46268611624232	-0.812855697239681	-0.77686272651882	-0.629349694437039	0.0200814904265412
417	0.0001	-6.27195739746094	-2.51836303710938	5.18581604003906	-0.513367078652381	0.623503816718503	-0.589658573323054	0.367344462741645	-0.461319732656446	-0.807615100128048	-0.775572232773307	-0.631210816446648	0.00778568890871389
418	0.0001	-7.36648132324219	-3.06143371582031	4.58646240234375	-0.505962859805995	0.624306990311839	-0.595182632764694	0.380392893439259	-0.457796766828478	-0.803569142577228	-0.774146517861992	-0.632979385232383	-0.00585378108460088
419	0.0001	-7.85506530761719	-3.39074890136719	3.21531372070313	-0.495729244753411	0.625710309216301	-0.602278278569511	0.394420555658971	-0.455641440248081	-0.798012094646643	-0.773747336777246	-0.633148866277983	-0.0209182207901021
420	0.0001	-9.59983703613281	-3.21291870117187	1.54179382324219	-0.488275203924076	0.62566632785262	-0.608382257650829	0.403416111342162	-0.456354286503058	-0.793092810646934	-0.773849317595144	-0.632678758440413	-0.0295773946761273
421	0.0001	-9.14238830566406	-2.79139526367188	1.30588439941406	-0.481701448290236	0.62389479936239	-0.61540149012141	0.414629095839522	-0.456409484671329	-0.787256689514514	-0.772040431323638	-0.634386050942653	-0.0388318267790285
422	0.0001	-9.09089538574219	-3.45601318359375	0.712518310546875	-0.474474296251153	0.623981325565129	-0.620903734521671	0.426830018000024	-0.453806203976571	-0.782225073087327	-0.769863804793467	-0.636166043245283	-0.0510145811564521
423	0.0001	-9.73036560058594	-3.420087890625	-0.295784912109375	-0.469639288748829	0.620718165059828	-0.627811992580784	0.433050511894478	-0.457726412187235	-0.776500988881619	-0.769354399877862	-0.636549676891727	-0.0538360124601931
424	0.0001	-9.23280029296875	-3.07879760742188	-0.835263061523438	-0.468607415456725	0.614660290087727	-0.634507539725289	0.436594490086531	-0.463263978690148	-0.771214456084853	-0.767979388658999	-0.638419308791209	-0.0512683601991009
425	0.0001	-9.00826721191406	-3.32129333496094	-1.484912109375	-0.467344481715764	0.609729303676998	-0.640171314295937	0.439916547756431	-0.467715148055315	-0.766626357027763	-0.766852375897661	-0.63990055205255	-0.0496459168809946
426	0.0001	-9.12083312988281	-2.91893005371094	-1.77291320800781	-0.466009448798293	0.605523916185696	-0.64511702857532	0.442910585898969	-0.471543751518894	-0.762546197487155	-0.765940863598061	-0.64108289427392	-0.0484491087640457
427	0.0001	-9.09209289550781	-2.80037658691406	-1.7387841796875	-0.464364165208254	0.601961072202115	-0.649622035974552	0.444814398793603	-0.4757548595964	-0.758813194532287	-0.765836844697568	-0.641326891003091	-0.0468374442084843
428	0.0001	-9.08790161132812	-2.77582763671875	-1.74237670898438	-0.463047781117625	0.600060479019707	-0.652314474713449	0.446544345606322	-0.47780124931795	-0.756507841041471	-0.765627128443779	-0.641586617432787	-0.0467088056161649
429	0.0001	-9.13161071777344	-2.85606079101563	-2.05013671875	-0.462693039376812	0.599994267238229	-0.652627022573773	0.447678670154207	-0.477271650970776	-0.756171660053847	-0.76517903761225	-0.64204256125345	-0.0477743648613008
430	0.0001	-9.08610534667969	-2.85725830078125	-2.11420349121094	-0.4635630169366	0.601081461690915	-0.651007224030694	0.448129126116891	-0.474782351426754	-0.757470794882149	-0.764388393197038	-0.642870745317592	-0.0492705709369738
431	0.0001	-9.32800231933594	-2.99557067871094	-1.74656799316406	-0.465335619355736	0.602990095004144	-0.647970452015913	0.447408476741186	-0.471416113329337	-0.759995067769254	-0.763733210158459	-0.643560248477448	-0.050416170825446
432	0.0001	-9.64953369140625	-3.02191589355469	-2.04774169921875	-0.467776654876073	0.605018746457724	-0.6443115066392	0.445326842618305	-0.468354582747063	-0.763104179036804	-0.763458580668632	-0.643891529106066	-0.050345748071603
433	0.0001	-9.32680480957031	-3.13388305664063	-1.87709655761719	-0.471082042365649	0.607989092473328	-0.639086044906371	0.441916591237492	-0.464363459502471	-0.767513064297887	-0.763407778156369	-0.64398434834424	-0.0499271803529868
434	0.0001	-9.48547485351563	-2.7542724609375	-1.82799865722656	-0.476455750281077	0.610435673929541	-0.632738655384894	0.437174137427102	-0.459908831393274	-0.772892386022364	-0.76280318011199	-0.644865997553493	-0.0477404818825026
435	0.0001	-9.14119079589844	-3.07580383300781	-1.44419677734375	-0.48264484593566	0.611949334166191	-0.626555636081345	0.432148033051146	-0.455845442171379	-0.778108610915986	-0.761775577333488	-0.646314896366419	-0.0444412478795999
436	0.0001	-9.22801025390625	-3.08837768554688	-0.8095166015625	-0.489796258730909	0.613652919685766	-0.619297762868831	0.425733593981813	-0.451539434800657	-0.784132033381644	-0.760822273522886	-0.647720798632434	-0.0400903371204233
437	0.0001	-9.02802612304687	-3.14765441894531	-0.24908203125	-0.496461017215857	0.615095331433619	-0.612522809072089	0.418293207772719	-0.448781016255865	-0.789700191072259	-0.760629509496052	-0.648269490796011	-0.03448791943384
438	0.0001	-8.67655700683594	-3.73682922363281	-0.0676593017578125	-0.505479985599901	0.616490266594335	-0.603680159813431	0.411457353347368	-0.442746211273321	-0.796667207044133	-0.758414682435871	-0.651087969169732	-0.0298601049584688
439	0.0001	-8.72206237792969	-3.68174377441406	0.299976196289063	-0.512835297207546	0.614438069543444	-0.599554681937997	0.403451367298595	-0.443961185708849	-0.800078408538118	-0.757777640316037	-0.652199604630146	-0.0202169126559992
440	0.0001	-8.84420837402344	-3.46559326171875	1.08973388671875	-0.519788475354104	0.613962125224486	-0.59402899733842	0.39484683633216	-0.443961999383676	-0.804359197710658	-0.757572383820543	-0.652647111303713	-0.0116546719978565
441	0.0001	-8.85797973632813	-3.65839233398438	1.60885437011719	-0.528068125733754	0.612400841956841	-0.588310516100632	0.386728264732263	-0.443348487284448	-0.808630551042789	-0.756032607657377	-0.654528324515558	-0.00271451020335234
442	0.0001	-8.34125427246094	-3.62246704101562	1.99325500488281	-0.536363159599035	0.610043179314443	-0.583233984260919	0.37889814893804	-0.443444476792344	-0.81227654695534	-0.754155656185291	-0.656661492227381	0.00670304926456344
443	0.0001	-7.9370947265625	-3.8464013671875	2.53991821289063	-0.543742171789377	0.605501320606959	-0.581130451242233	0.371187841459906	-0.447523751869949	-0.81359822877424	-0.752704481832085	-0.658096225680921	0.018582808571877
444	0.0001	-7.539521484375	-3.61588073730469	3.10574157714844	-0.550927726257076	0.601886649027483	-0.578109939512958	0.363841027453154	-0.450192967958543	-0.815442210302184	-0.751064808910018	-0.659589837189102	0.0290327314218304
445	0.0001	-7.4868310546875	-3.27399169921875	3.78652587890625	-0.557353619995336	0.600552991487262	-0.573317579264577	0.357987212743584	-0.449210254204143	-0.818569058192361	-0.749134232157478	-0.66147279001751	0.0353786697923584
446	0.0001	-7.13596069335938	-3.57217163085938	4.18290161132813	-0.56383536516464	0.60068249460865	-0.566807040941082	0.353441484614871	-0.444780635216663	-0.822951580282521	-0.746437403901287	-0.664342326821791	0.0384769391989024
447	0.0001	-6.73838745117188	-3.9901025390625	4.28289367675781	-0.569996153401773	0.601960274555335	-0.559238958732712	0.349865817162864	-0.438027972520524	-0.82808538525355	-0.743436813110666	-0.667664079569078	0.039068936062192
448	0.0001	-6.61025390625	-4.21703063964844	4.24038208007812	-0.576145747013595	0.602916550231952	-0.551858416312145	0.346987579569677	-0.430897481649556	-0.83302279676636	-0.740037632706962	-0.671430557663614	0.039055197003776
449	0.0001	-6.619833984375	-4.67088684082031	4.24816589355469	-0.582146612726188	0.603193416232884	-0.545218326823969	0.344715367941296	-0.424213686969209	-0.837385253567966	-0.73639434842788	-0.675426125050914	0.039024520524727
450	0.0001	-6.42703491210938	-5.05768249511719	4.41821228027344	-0.588231090241929	0.602770951035531	-0.539120918774734	0.342253093346953	-0.418451788332471	-0.841285279162662	-0.732698440401802	-0.679385959105043	0.0398461290928994
451	0.0001	-6.19591552734375	-4.97864685058594	4.25654846191406	-0.594620273055149	0.601611099849028	-0.533376804342168	0.339354728625919	-0.413612096550557	-0.844845193953473	-0.728879344631915	-0.683366020610841	0.0417825662621976
452	0.0001	-5.48818725585938	-5.69356018066406	4.3062451171875	-0.598908708782076	0.601621344111556	-0.528545283636503	0.340405077033549	-0.406156812089005	-0.84803362405242	-0.724867396200691	-0.687814220777022	0.0384558919039492
453	0.0001	-5.04810241699219	-6.43721374511719	4.37689819335938	-0.603850995979004	0.598961234633345	-0.525936701573169	0.337728297276176	-0.405409716836172	-0.849460157225605	-0.722013553802212	-0.690571068682517	0.0425209033839331
454	0.0001	-5.12893432617188	-6.29171630859375	4.22780822753906	-0.607910762328471	0.595117535046629	-0.525623082184602	0.336204440487832	-0.406785979817502	-0.849406699302624	-0.71931292164223	-0.693080288353333	0.0472084172005418
455	0.0001	-4.9576904296875	-5.96419738769531	4.16434020996094	-0.611476856281036	0.591272008792486	-0.525826459824112	0.334821976193611	-0.408765995639738	-0.849002123122468	-0.716931167191429	-0.695203403636052	0.0519800835165084
456	0.0001	-4.67148559570313	-6.03245544433594	4.30744262695312	-0.613992222915838	0.58855169407838	-0.525947196585681	0.3345688471165	-0.409455034164995	-0.848769851924583	-0.714896661579843	-0.697103635332948	0.0544911448547785
457	0.0001	-4.3541455078125	-5.59775939941406	4.2583447265625	-0.615276362476175	0.586768105708074	-0.526439158784607	0.335300813142812	-0.409592729562774	-0.848414498105192	-0.713448219903768	-0.698524864276909	0.0552689017718866
458	0.0001	-4.70920715332031	-5.76062072753906	4.14937133789063	-0.615086030027925	0.585090946088611	-0.528524134235724	0.337138307829778	-0.410787183120398	-0.847107815793056	-0.712746053695256	-0.699229915685208	0.0554128861610415
459	0.0001	-4.69842956542969	-5.67020874023438	4.27870239257813	-0.613810997832222	0.584212307331977	-0.530972728962666	0.339619741128118	-0.411755010870453	-0.845645459077942	-0.71266716661867	-0.69939530380531	0.0543297215048637
460	0.0001	-5.0630712890625	-5.63488220214844	4.04039794921875	-0.61103371219195	0.584116229756239	-0.534271497181238	0.343288826474254	-0.412628579006552	-0.843735999827531	-0.713295579814465	-0.698960575370593	0.0516093973492779
461	0.0001	-5.2738330078125	-5.57560546875	3.93022705078125	-0.607168367882392	0.58525110323563	-0.537426943132283	0.34754309417198	-0.412629731097283	-0.84199198494282	-0.714535073132452	-0.69800992197537	0.0471357410840122
462	0.0001	-5.53608764648438	-5.52650756835938	3.37578002929688	-0.60104401794077	0.588370807357248	-0.540893595402456	0.353868696186079	-0.410908495456951	-0.84019709248537	-0.716605215133953	-0.696400747710027	0.0387680826419826
463	0.0001	-6.30249389648438	-5.82768127441406	3.18836975097656	-0.593449026267182	0.591977820355116	-0.545326061572468	0.360254881898595	-0.410509783712875	-0.837674243094676	-0.719746256183916	-0.693573339801649	0.0303537316589375
464	0.0001	-6.90065002441406	-5.37562133789063	2.77642639160156	-0.584968367919414	0.59637630010264	-0.549679285774517	0.366194060850969	-0.410514589493232	-0.835092618582322	-0.723680812465809	-0.689792055977082	0.0217485902931025
465	0.0001	-7.43354187011719	-5.31873962402344	2.12737609863281	-0.576692454396444	0.600946624109249	-0.553433797318074	0.37118153229035	-0.410735800152255	-0.832778705635462	-0.727770625354441	-0.685681600631798	0.0138079479367075
466	0.0001	-7.93350219726562	-5.19898864746094	1.77949951171875	-0.568600607247475	0.605256892376763	-0.557097337696228	0.375708131553906	-0.411391935819281	-0.830421624855192	-0.731803764216935	-0.681484240003603	0.00651776837856033
467	0.0001	-8.35981567382813	-5.07205261230469	1.09871520996094	-0.558848741104245	0.609227117982589	-0.5626103476482	0.380390788360075	-0.414527753980014	-0.826722195970984	-0.736879184600163	-0.676024452142756	-8.60702352323273e-05
468	0.0001	-8.47178283691406	-4.08350830078125	0.868793334960938	-0.549119009718361	0.612984055292131	-0.568083498372854	0.386820218526763	-0.416128729093926	-0.822925877197686	-0.740836305606599	-0.671630425740443	-0.00861043058610611
469	0.0001	-8.30652648925781	-3.98291748046875	-0.07424560546875	-0.541019524251011	0.618367375701544	-0.570017248026053	0.393740589548203	-0.412670094808626	-0.821384039894174	-0.743146164977956	-0.668823729781342	-0.0202137567001183
470	0.0001	-8.8472021484375	-4.94212280273438	0.125738525390625	-0.533683520552167	0.619689577382749	-0.5754708746533	0.397361093280143	-0.416934033193052	-0.817477934572295	-0.746515948549162	-0.664944237999372	-0.0237297052906364
471	0.0001	-8.99210083007813	-4.00088012695312	-0.753832397460938	-0.52611841810212	0.615277032003279	-0.587055009367059	0.402823641193564	-0.427655074566816	-0.809224475218595	-0.748954287142601	-0.662227537245686	-0.0228509230498923
472	0.0001	-9.62917602539063	-3.16861083984375	-1.22924377441406	-0.519604305553585	0.610273776902873	-0.597977660849366	0.405650083020198	-0.439759535784473	-0.801286191589704	-0.75197032906617	-0.658921442898414	-0.0190566600638421
473	0.0001	-9.21004760742188	-2.76564880371094	-1.07296875	-0.51265945237285	0.608200594509817	-0.606029968508716	0.40865548934153	-0.447918284750633	-0.795216889418909	-0.755103288910731	-0.655332928383701	-0.0189149689991728
474	0.0001	-9.67408264160156	-2.59739868164062	-1.41485778808594	-0.507776372488936	0.606553542160343	-0.611764624700316	0.412437790661416	-0.452295588140665	-0.790774158519877	-0.756345307631578	-0.653851283887423	-0.020500589807651
475	0.0001	-9.20944885253906	-2.52075805664062	-1.484912109375	-0.504235299738543	0.605128962142709	-0.616089037131541	0.415922985954787	-0.455047484239184	-0.787362595531464	-0.756805676677993	-0.653261606298485	-0.0222360402115019
476	0.0001	-9.16394348144531	-2.24712707519531	-1.97529235839844	-0.500382264395927	0.603606646103637	-0.620706537952939	0.421547241640321	-0.456350403416654	-0.783608468794776	-0.7562509587058	-0.65376090895753	-0.0260990684811334
477	0.0001	-9.15436340332031	-2.4189697265625	-2.19204162597656	-0.498273009569601	0.600566432261726	-0.625335084874401	0.422607946000173	-0.461534980987053	-0.779992298232999	-0.75705120824946	-0.65292068566228	-0.0238337223767127
478	0.0001	-9.46152465820312	-2.25491088867187	-2.25790466308594	-0.49708320111486	0.598823951133922	-0.627947582778819	0.419867456961401	-0.467327812945927	-0.778020587023212	-0.75935473248948	-0.650395718617162	-0.0191258843010095
479	0.0001	-9.64953369140625	-2.36508178710938	-2.0309765625	-0.497659921098761	0.598925541401579	-0.627393655362246	0.416895771015051	-0.469130965917107	-0.778533270276517	-0.76061325194986	-0.649002567540766	-0.0162218458799246
480	0.0001	-9.53756652832031	-1.91481811523438	-2.078876953125	-0.498056026231407	0.59953092257276	-0.626500492907736	0.415337009127552	-0.469288162953534	-0.779271319221153	-0.761206518353305	-0.64832961754863	-0.0152755826627778
481	0.0001	-8.79810424804688	-2.17647399902344	-2.00942138671875	-0.498480910614749	0.601431374078997	-0.62433731590074	0.415016022288086	-0.466739591687317	-0.780971097285764	-0.761103464055226	-0.648409173149953	-0.0169428798652735
482	0.0001	-9.33159484863281	-2.3231689453125	-2.71056335449219	-0.499091351090118	0.602387476884707	-0.62292628051762	0.415096091362851	-0.46482100758084	-0.782072033668777	-0.760659620462611	-0.64889965218361	-0.0180605424521803
483	0.0001	-8.96635437011719	-2.34412536621094	-2.20461547851562	-0.499871194004002	0.605016990571879	-0.619744488095182	0.4143300834729	-0.461320766187403	-0.784546832645195	-0.760565165738185	-0.648951147470758	-0.0200757779932306
484	0.0001	-9.07532775878906	-2.13755493164063	-2.22377563476563	-0.499680153804575	0.606971530899156	-0.617984874063897	0.415259609297801	-0.458254290709975	-0.785851424845521	-0.760183662531413	-0.649298518190079	-0.023070186312504
485	0.0001	-9.08969787597656	-2.32496520996094	-2.0309765625	-0.499693916459834	0.608281812437744	-0.616684057285808	0.415485053791958	-0.456377736463283	-0.786823698001111	-0.760051419266175	-0.649394023931622	-0.0246828230429543
486	0.0001	-9.31063842773438	-2.2273681640625	-2.58422607421875	-0.499484225865114	0.609299872962501	-0.615848335972266	0.414835300885886	-0.455860770132924	-0.787465955703949	-0.760544003494107	-0.648802453033046	-0.0250638322580123
487	0.0001	-9.15077087402344	-2.30700256347656	-2.54291198730469	-0.499024965161363	0.609783532406175	-0.615741932754257	0.414707201502522	-0.455852195971858	-0.787538387921237	-0.760915252290061	-0.648353930375903	-0.0253999960329
488	0.0001	-9.01605102539063	-1.86512145996094	-2.32017517089844	-0.498474887581415	0.609406076384024	-0.616560638150802	0.41484639956383	-0.456814474169755	-0.786907237835526	-0.761199875998165	-0.648031457766704	-0.0250993730029012
489	0.0001	-8.9621630859375	-1.84656005859375	-2.24892333984375	-0.498286246166421	0.610502390295626	-0.615627848886568	0.415346041288984	-0.455193414332421	-0.78758277122723	-0.761050906882678	-0.648140252562452	-0.0267531332993726
490	0.0001	-9.14957336425781	-1.80165344238281	-2.11001220703125	-0.498174040668772	0.612677839465858	-0.613553983143453	0.415646560354879	-0.452269566011175	-0.789107202175485	-0.760960289416541	-0.648134326114203	-0.0293484794083437
491	0.0001	-9.13520324707031	-2.05851928710937	-2.26029968261719	-0.499071789943673	0.613246429809913	-0.61225498348957	0.415050198740766	-0.451059697037218	-0.790112955363943	-0.760697496385829	-0.648439639468539	-0.0294168821978543
492	0.0001	-9.23579406738281	-1.76692565917969	-2.08606201171875	-0.500930831588427	0.616473581398034	-0.607477263280206	0.413186885211803	-0.446399650472401	-0.793727881548259	-0.760489907791744	-0.648604406010628	-0.0311034507812953
493	0.0001	-9.31602722167969	-2.06630310058594	-2.13994995117188	-0.504143856195402	0.618060433043299	-0.603191738476879	0.412207730493051	-0.441542591434781	-0.796947254760832	-0.75889640872928	-0.650416359769178	-0.0321683036918898
494	0.0001	-9.38488403320313	-1.62741577148438	-1.67232238769531	-0.507082297538807	0.61877558864512	-0.599986928540656	0.411622914427792	-0.437746567072423	-0.799340052377135	-0.757254329694282	-0.652299558418671	-0.0327286762040666
495	0.0001	-9.40703796386719	-1.79506713867188	-1.16577575683594	-0.510483129730008	0.621356920733353	-0.594409413887282	0.410948322929404	-0.430923218394375	-0.803384500553841	-0.755333337105259	-0.654385785989733	-0.0353665513166612
496	0.0001	-9.14478332519531	-2.13755493164063	-1.85314636230469	-0.515103575697822	0.622324718383283	-0.589389727762951	0.407643463956251	-0.42701830406063	-0.80714445689166	-0.753986148809822	-0.656023866095092	-0.0337279485973088
497	0.0001	-9.26992309570313	-2.44112365722656	-1.72142028808594	-0.520146823410785	0.621391318877942	-0.58593524464637	0.405980833728741	-0.423694036585039	-0.809730156291089	-0.751416558734625	-0.659057047747316	-0.0318898584820673
498	0.0001	-10.1530865478516	-2.24054077148438	-1.69627258300781	-0.52674700420851	0.619489291545609	-0.582040042623941	0.401469709218207	-0.422236976952144	-0.812734893968853	-0.749239391741791	-0.661777117279401	-0.0262941230650093
499	0.0001	-11.1494146728516	-2.42495727539062	-1.72381530761719	-0.534265081986679	0.615863972886292	-0.57902710564401	0.39535295872564	-0.423399214852867	-0.815125231414694	-0.747165885327113	-0.664413027989886	-0.0172762276166606
500	0.0001	-9.03161865234375	-2.96443542480469	-0.552650756835938	-0.539233643212979	0.612496804360871	-0.577991991877897	0.391626999604078	-0.42522332762881	-0.815973905723333	-0.745557087826523	-0.666357851524241	-0.0105755616225043
501	0.0001	-9.57708435058594	-1.82440612792969	-0.738863525390625	-0.544203046116159	0.615338323048968	-0.570264669066196	0.385867082138655	-0.419984849164393	-0.821413002937111	-0.744949420779488	-0.667061822217136	-0.00888176900510029
502	0.0001	-8.2819775390625	-3.44224182128906	0.438887329101563	-0.558714383541938	0.610997687325284	-0.560820883800262	0.375966233440153	-0.416145708625905	-0.827932449240316	-0.739248015848658	-0.673427483308632	0.0027920939142142
503	0.0001	-7.99637145996094	-3.46738952636719	1.84596130371094	-0.56487704041505	0.607585532388889	-0.558349129168878	0.373953524392703	-0.414683034841846	-0.829576242553168	-0.735576434373893	-0.67740519738637	0.0070361742249514
504	0.0001	-7.90296569824219	-4.0188427734375	1.96032348632813	-0.570421024220176	0.604845946922514	-0.555680875700264	0.371141576323204	-0.41372421602081	-0.831315946798985	-0.732716715690268	-0.680436369963697	0.0115135128737575
505	0.0001	-8.01433410644531	-3.38775512695313	2.24293579101563	-0.574075024754109	0.603563543123119	-0.553307252226315	0.367873440004056	-0.413588045152944	-0.832834954265338	-0.731510080650397	-0.681656789241648	0.0153955703894417
506	0.0001	-7.83410888671875	-4.2104443359375	2.47704895019531	-0.579516825605304	0.600743089778952	-0.550697729179257	0.365525171560334	-0.412352848436405	-0.834479764489332	-0.72838972933186	-0.684888946084854	0.019378692800034
507	0.0001	-7.59580444335938	-4.34636169433594	2.55189331054688	-0.581417221019758	0.599683220822168	-0.549849115454424	0.366560701090687	-0.410265221567143	-0.835054309843598	-0.726352027268848	-0.687068033484905	0.0187149631477286
508	0.0001	-7.91613830566406	-4.6223876953125	2.59260864257813	-0.58428288642525	0.59786547996388	-0.548789920186348	0.366318218444495	-0.409124375621744	-0.835720173328232	-0.724171575986126	-0.689328740978989	0.0200353536053691
509	0.0001	-7.65148864746094	-4.66849182128906	2.75067993164062	-0.58905701140894	0.595506351059418	-0.546245387310378	0.364776515772899	-0.407228845829086	-0.837318792733864	-0.721075537548287	-0.692485994784449	0.0226542750235065
510	0.0001	-7.67484008789063	-4.80081665039063	2.62374389648438	-0.594699997393774	0.590583267237316	-0.545475313427787	0.363940952296114	-0.407225099728017	-0.83768412984448	-0.716853469226203	-0.696691554858249	0.0272393290584325
511	0.0001	-7.55029907226563	-5.16605712890625	3.12550048828125	-0.601450384055285	0.584453903031358	-0.54467519748118	0.362428121405771	-0.40797398222619	-0.837975588332255	-0.711971412582018	-0.701406348030809	0.0335535781705804
512	0.0001	-7.1132080078125	-5.28461059570312	3.16861083984375	-0.608370179388941	0.579679641143158	-0.54208600652886	0.359895108858701	-0.407265290345148	-0.8394108016339	-0.707362167103848	-0.705766602301513	0.0391441901937778
513	0.0001	-6.56355102539063	-5.44328063964844	3.42667419433594	-0.614371318373454	0.574871871701814	-0.540435208222149	0.358052125761094	-0.407230133154932	-0.840215623449468	-0.703097829891421	-0.709708355436703	0.0443564180847005
514	0.0001	-6.27554992675781	-5.59895690917969	3.57696166992188	-0.620338009902038	0.56969270133923	-0.539102012156874	0.356076318579075	-0.407868729953659	-0.840745356498127	-0.698849346295717	-0.713507761111819	0.0501623964264829
