// Start Time: Unknown
// Update Rate: 100.0Hz
// Filter Profile: human (46.1)
// Option Flags: AHS Disabled ICC Disabled 
// Firmware Version: 4.0.2
PacketCounter	SampleTimeFine	Acc_X	Acc_Y	Acc_Z	Mat[1][1]	Mat[2][1]	Mat[3][1]	Mat[1][2]	Mat[2][2]	Mat[3][2]	Mat[1][3]	Mat[2][3]	Mat[3][3]
1	0.0001	-8.660390625	0.71611083984375	-5.00798583984375	0.334675772815499	0.82516654992706	-0.455073941213756	0.379172873288264	-0.56002485921168	-0.736613934993942	-0.862681899226285	0.0739751441121294	-0.500307524229767
2	0.0001	-8.53525085449219	0.913101196289062	-4.96008544921875	0.336821578473855	0.82474648284514	-0.45425154188946	0.379292784139872	-0.560414012413783	-0.736256150120126	-0.861793599520097	0.0756926266214618	-0.501579921947977
3	0.0001	-8.66398315429688	0.860410766601563	-5.00379455566406	0.337372082488679	0.824535098394662	-0.454226759969684	0.378737906031212	-0.560628959015887	-0.736378142565256	-0.861822299834685	0.0764005355221257	-0.501423256021883
4	0.0001	-8.64901428222656	0.9196875	-4.88703735351563	0.338075555041495	0.824295110696689	-0.454139284322462	0.3783278027847	-0.560879917741382	-0.73639784866234	-0.86172675061384	0.07714459382195	-0.501473547578095
5	0.0001	-8.76217895507813	0.861608276367188	-4.95170288085937	0.338137379827844	0.824523312827867	-0.453678761864076	0.378415319392873	-0.560508487019625	-0.736635650798793	-0.861664063549102	0.0774050552763245	-0.501541123942712
6	0.0001	-8.66577941894531	0.825682983398437	-4.88524108886719	0.338367198958322	0.824382688966386	-0.453762956621242	0.378131954328562	-0.560677722372914	-0.736652371712998	-0.861698244041824	0.0776767260334351	-0.501440387731149
7	0.0001	-8.6747607421875	0.786165161132813	-4.95709167480469	0.338666885961091	0.8243757161143	-0.453552002569113	0.378084390258372	-0.560640781085104	-0.736704899147032	-0.861601377782309	0.0780166217245986	-0.50155405744377
8	0.0001	-8.71068603515625	0.728684692382813	-4.93733276367188	0.338720764234812	0.824058796659132	-0.454087374328872	0.377756810266692	-0.561117623431041	-0.736509881109707	-0.861723874668284	0.0779365916871188	-0.501356012732345
9	0.0001	-8.71367980957031	0.774788818359375	-4.87985229492188	0.339019721086779	0.823615647861426	-0.454667893425571	0.377066222189672	-0.561729417807483	-0.736397396283607	-0.861908749693291	0.0782133349721825	-0.500994991426738
10	0.0001	-8.57596618652344	0.815504150390625	-4.89122863769531	0.339665858830101	0.823255366268898	-0.454838109940969	0.376996049907215	-0.562211182077536	-0.736065598368336	-0.861685025226484	0.0785441828300636	-0.501327965152544
11	0.0001	-8.74840759277344	0.808917846679688	-5.00738708496094	0.33958567090727	0.822998042185979	-0.455363365536256	0.376951547027656	-0.562635030684104	-0.735764468726612	-0.861736098412917	0.0782051456436458	-0.501293179573531
12	0.0001	-8.6172802734375	0.838855590820313	-4.88763610839844	0.339834763286246	0.822855063951202	-0.455435920182022	0.377062939578141	-0.56283958297481	-0.735550911516961	-0.861589155722652	0.0782377630470399	-0.501540605708574
13	0.0001	-8.69691467285156	0.713117065429688	-5.02534973144531	0.340424211183673	0.822436642227929	-0.455751386131543	0.377105344926902	-0.563432281419433	-0.735075249945238	-0.861337863597982	0.0783711284551996	-0.501951243605514
14	0.0001	-8.6747607421875	0.82628173828125	-5.00439331054688	0.340706000403049	0.822118075312934	-0.456115436631029	0.376750586209823	-0.563872141084332	-0.734919862501706	-0.861381690703902	0.0785498488396256	-0.501848088735386
15	0.0001	-8.62805786132813	0.855620727539063	-5.04450988769531	0.341171510517051	0.821710746141328	-0.456501314442113	0.376558681967363	-0.564442074320375	-0.734580631225678	-0.861281347439103	0.0787184502691421	-0.501993870620656
16	0.0001	-8.5885400390625	1.08015380859375	-4.81758178710938	0.341560906769779	0.821618203655367	-0.456376680373499	0.376309598260041	-0.564510729719203	-0.734655512665127	-0.861235875485905	0.0791906778227153	-0.501997612864848
17	0.0001	-8.631650390625	1.06698120117188	-4.89661743164063	0.341221495415173	0.82236142070425	-0.455290659693257	0.377074467363305	-0.563433177349086	-0.735090403096785	-0.861035851245065	0.079150163610705	-0.502347006033763
18	0.0001	-8.62985412597656	0.707728271484375	-5.00798583984375	0.341084009528446	0.822756852703675	-0.45467885344839	0.377841797468682	-0.562885140809254	-0.735116245461751	-0.86075389893374	0.0789397212136527	-0.502863048836436
19	0.0001	-8.67715576171875	0.590971069335938	-4.97505432128906	0.341480927204996	0.822568689248266	-0.454721373836337	0.378095933144411	-0.563153730397684	-0.73477979101145	-0.860484887545896	0.0789849821647239	-0.503316134151852
20	0.0001	-8.68553833007813	0.763412475585938	-5.08762023925781	0.342108075307052	0.821990769117157	-0.455294674135213	0.377354415955157	-0.563925337296072	-0.734569165371549	-0.860561275894312	0.0794945874993816	-0.503105258359974
21	0.0001	-8.58434875488281	0.813707885742188	-4.97864685058594	0.34295683141352	0.821870339572553	-0.454873341401423	0.377664893108731	-0.564021469420212	-0.734335761451283	-0.860087112041548	0.0800557740825864	-0.503826589945458
22	0.0001	-8.73822875976563	0.727487182617188	-5.15527954101563	0.343790138233898	0.821409097970065	-0.455077394104697	0.377754212064794	-0.564648568563711	-0.733807705932732	-0.859715124980609	0.0803684502211937	-0.504411356026626
23	0.0001	-8.70649475097656	0.665216674804687	-5.36723876953125	0.344362937160087	0.820713510764365	-0.455898564111918	0.377216652106193	-0.565632167086415	-0.733326563633775	-0.859721911366852	0.0805579592961219	-0.504369557278957
24	0.0001	-8.63883544921875	0.890947265625	-5.27622802734375	0.344972143796403	0.819842001589232	-0.457004718175508	0.37589240358016	-0.566815614285582	-0.733092736516185	-0.860057626520017	0.0811119709550946	-0.503707978130717
25	0.0001	-8.38855590820313	0.9196875	-5.00978210449219	0.345872894192997	0.819581265153104	-0.456791517951678	0.376214492801386	-0.567127635340125	-0.732686086014818	-0.859554882755462	0.0815646678627186	-0.504492426591013
26	0.0001	-8.68194580078125	0.858015747070313	-5.15827331542969	0.345965750063724	0.819434811109009	-0.456983905762105	0.37629195380804	-0.567355687925247	-0.732469718744876	-0.859483603847202	0.0814500688864843	-0.504632362216509
27	0.0001	-8.65021179199219	0.877774658203125	-5.14090942382813	0.346080666380253	0.818987875288647	-0.457697533845211	0.375071385053506	-0.567938149164828	-0.732644330379532	-0.859970713729162	0.0818847901225651	-0.503731329852272
28	0.0001	-8.52387451171875	1.00471069335938	-4.88643859863281	0.346223825227859	0.818777233550921	-0.457966051867701	0.374190971951043	-0.56816933853284	-0.732915219695627	-0.860296564769919	0.0823859488617803	-0.503092810597827
29	0.0001	-8.66757568359375	0.97956298828125	-5.0151708984375	0.34605217772438	0.818517568827841	-0.458559570625643	0.37340823093675	-0.568535990929584	-0.733030094939084	-0.860705631073075	0.0824367426447422	-0.502384315142525
30	0.0001	-8.70709350585938	0.977766723632813	-4.89242614746094	0.345378177052471	0.818820388508633	-0.458527083364204	0.373062692853879	-0.568121793070499	-0.733526997075754	-0.861126089499398	0.0822848686025117	-0.50168820833516
31	0.0001	-8.68613708496094	0.834664306640625	-4.83374816894531	0.34483519424338	0.819234009959573	-0.458196819867497	0.373206877885704	-0.567556395953088	-0.73389124787774	-0.86128120559428	0.0820693264155305	-0.501457187157354
32	0.0001	-8.68314331054687	0.786165161132813	-4.87326599121094	0.344895801404359	0.819316572667753	-0.458003537023036	0.372937563218217	-0.56738911924137	-0.734157449943376	-0.861373589167037	0.0824010990125056	-0.501244051103879
33	0.0001	-8.68314331054687	0.871787109375	-4.88045104980469	0.345460905358258	0.81911006094188	-0.457947017604485	0.372575570083038	-0.567598429417456	-0.734179451837312	-0.861303783485451	0.0830104269753296	-0.501263465222653
34	0.0001	-8.68613708496094	0.901126098632813	-4.95110412597656	0.345568255174669	0.819095663113096	-0.457891772894921	0.372370357249895	-0.567585098021306	-0.73429386048484	-0.861349463375418	0.0832433250985483	-0.501146336681629
35	0.0001	-8.67056945800781	0.8861572265625	-4.8331494140625	0.345639088807611	0.819103402587271	-0.457824459982425	0.372071906713098	-0.567532796309098	-0.734485548767609	-0.861450008139256	0.0835232960528391	-0.500926883380545
36	0.0001	-8.72385864257813	0.871787109375	-4.89961120605469	0.34611580286428	0.818844575934298	-0.457927299328829	0.371713371290989	-0.567838765448444	-0.734430599891831	-0.861413385437621	0.083980336489959	-0.500913448084527
37	0.0001	-8.71607482910156	0.896336059570313	-4.91038879394531	0.346433367119229	0.818718573978516	-0.457912457538577	0.371464583275797	-0.567966785954719	-0.734457482380025	-0.861393049378838	0.0843423184104606	-0.500887599973264
38	0.0001	-8.69332214355469	0.837658081054688	-4.94751159667969	0.346574221379337	0.818593917311378	-0.458028719204504	0.371394190647939	-0.568137668021441	-0.734360909449925	-0.861366742002655	0.0844013549415609	-0.500922895319988
39	0.0001	-8.68553833007813	0.8669970703125	-4.85769836425781	0.346686944497265	0.818306431305711	-0.458456919457937	0.370903352625995	-0.568532524409633	-0.734303392133801	-0.861532858065174	0.0845301908913099	-0.500615402581594
40	0.0001	-8.82385070800781	0.850830688476563	-4.94511657714844	0.346547642772643	0.817684357561668	-0.459670558865463	0.369758428307638	-0.569437080795018	-0.734179893289862	-0.862080875547179	0.0844612480052847	-0.499682760960591
41	0.0001	-8.66577941894531	0.90292236328125	-4.63316528320312	0.345997055383346	0.817036438822242	-0.461234750753586	0.367815931911224	-0.570366125369275	-0.734434424073053	-0.863132364066098	0.0844626584231682	-0.497864019019008
42	0.0001	-8.86516479492188	0.783770141601563	-4.84392700195313	0.344978675686402	0.816232720776276	-0.463415427943239	0.365572284379653	-0.571582021866424	-0.734609350044316	-0.864492115762254	0.0840127241151525	-0.495575669269237
43	0.0001	-8.85498596191406	0.838855590820313	-4.55472839355469	0.343969014429777	0.815276593861101	-0.46584266937932	0.362921124087697	-0.572991744829106	-0.734825637854736	-0.866010147055524	0.0836931052114691	-0.492972503631725
44	0.0001	-8.82025817871094	0.923878784179687	-4.243974609375	0.343595116895259	0.814819016200776	-0.466917944057983	0.361275376554468	-0.573610676958578	-0.735153653037615	-0.866846294299723	0.0839092492918498	-0.491463874503627
45	0.0001	-8.86815856933594	0.914298706054688	-4.26852355957031	0.343879540991991	0.81466521420391	-0.46697692668186	0.360865877579652	-0.573769648406636	-0.73523071818715	-0.866904077557492	0.0843147634369112	-0.491292520786519
46	0.0001	-8.94240417480469	0.911903686523438	-4.38408325195313	0.343797263724156	0.814614489287535	-0.467125973692956	0.360545398430753	-0.57383092744433	-0.735340113402492	-0.867070041649574	0.0843877985919072	-0.490987008303294
47	0.0001	-8.92264526367187	0.858614501953125	-4.4882666015625	0.343859625909783	0.814582176597913	-0.46713642037224	0.360376837189755	-0.573855813870714	-0.735403317985369	-0.867115386143213	0.0845303641053703	-0.490882393917241
48	0.0001	-8.98012573242188	0.890348510742188	-4.41282348632812	0.343654711382674	0.814659992680116	-0.467151512542691	0.359992585123425	-0.573727278868906	-0.735691748042504	-0.867356200185739	0.0846528546956006	-0.490435639193606
49	0.0001	-8.88013366699219	0.841250610351563	-4.37390441894531	0.343388206068049	0.814739976858725	-0.467207994411067	0.359749246823279	-0.573618517236852	-0.735895560587968	-0.867562688999159	0.0846201323045474	-0.490075926633119
50	0.0001	-8.92923156738281	0.929866333007813	-4.29606628417969	0.343218105961972	0.814918390171547	-0.467021786536872	0.359494127150555	-0.573338639739575	-0.736238260840765	-0.867735734128852	0.084798711911138	-0.489738577379886
51	0.0001	-8.89270751953125	0.91250244140625	-4.33378784179687	0.343108503667316	0.81522425700341	-0.466568286003683	0.35948038888535	-0.572871673633003	-0.736608373259332	-0.867784768659841	0.0850144478436499	-0.489614275669966
52	0.0001	-8.90588012695313	0.853824462890625	-4.3445654296875	0.343095845993942	0.815498639527188	-0.466097853879427	0.359624156335377	-0.57245425191625	-0.736862670816669	-0.867730203831681	0.0851944739540821	-0.489679686086648
53	0.0001	-8.87833740234375	0.828078002929688	-4.38887329101563	0.343154601606234	0.815629210069615	-0.465826052381877	0.359701724911744	-0.572246244174764	-0.736986366986115	-0.867674817251247	0.0853418286017567	-0.489752165690898
54	0.0001	-8.88252868652344	0.817300415039063	-4.40863220214844	0.343248364858327	0.815798800857021	-0.465459854920197	0.359910642697845	-0.571983765888889	-0.737088122840403	-0.867551087426504	0.0854803373870882	-0.489947163095451
55	0.0001	-8.94420043945312	0.84065185546875	-4.43258239746094	0.343155356322822	0.815901037123871	-0.465349222678139	0.359692885753973	-0.571814877050498	-0.737325419554828	-0.867678183063822	0.0856343622847435	-0.4896951364177
56	0.0001	-8.82564697265625	0.832868041992188	-4.44276123046875	0.343293743142311	0.815986288663955	-0.465097605489176	0.35977221745186	-0.571665922986711	-0.737402213208995	-0.867590547129873	0.0858163691155487	-0.489818531011957
57	0.0001	-8.89570129394531	0.8382568359375	-4.40743469238281	0.343454882431642	0.815961650448126	-0.465021858337689	0.359844224951189	-0.571686827787302	-0.73735086946702	-0.8674969034545	0.0859113259847771	-0.489967719920805
58	0.0001	-8.84001708984375	0.87418212890625	-4.43198364257813	0.34360291552077	0.816004936002053	-0.464836509824596	0.35984360360435	-0.571594835069937	-0.737422487768313	-0.867438538105532	0.0861120719856201	-0.490035808556559
59	0.0001	-8.90408386230469	0.844843139648437	-4.54454956054688	0.343988466424867	0.815984546893025	-0.464587079241829	0.360036615592568	-0.571585549478013	-0.737335469823992	-0.867205610221312	0.0863665378471496	-0.490403151234756
60	0.0001	-8.82385070800781	0.884959716796875	-4.43138488769531	0.344254331388726	0.816009768549189	-0.46434579028177	0.360246612039905	-0.571524371186003	-0.737280320945984	-0.867012879854661	0.0865329461693248	-0.490714494786311
61	0.0001	-8.88851623535156	0.858015747070313	-4.56131469726563	0.344570526955623	0.816014931750715	-0.464102125736783	0.360440875322471	-0.571485400827601	-0.737215580436067	-0.866806510906728	0.0867413845911659	-0.491042161987046
62	0.0001	-8.85259094238281	0.9436376953125	-4.550537109375	0.344700508582742	0.816080544996639	-0.463890184699772	0.36042296066137	-0.571358654912292	-0.737322573155677	-0.866762279296285	0.0869587921650559	-0.491081785097251
63	0.0001	-8.86097351074219	0.94603271484375	-4.56670349121094	0.344760985456958	0.816164849207742	-0.463696885717869	0.360262694374491	-0.571198849176634	-0.737524688224958	-0.866804853440946	0.0872170488894919	-0.490960825763348
64	0.0001	-8.784931640625	0.977766723632813	-4.50443298339844	0.344824490986304	0.816392955530047	-0.463247895383187	0.360465569779456	-0.570846074861395	-0.737698672778331	-0.866695242527389	0.0873916527836251	-0.491123259074682
65	0.0001	-8.82444946289062	0.934656372070313	-4.60741882324219	0.344899548939161	0.816552800019799	-0.46291017046657	0.360577568884721	-0.570590647861895	-0.737841534063872	-0.866618784679139	0.0875661884083604	-0.491227080573622
66	0.0001	-8.74481506347656	0.931063842773438	-4.59185119628906	0.345311518705278	0.816878689108791	-0.462027231155651	0.361137261304281	-0.570060771754396	-0.737977367542139	-0.866221584553917	0.0879768366485472	-0.491853883451393
67	0.0001	-8.92444152832031	0.881965942382813	-4.84392700195313	0.345270462305435	0.817044902780208	-0.461763938284782	0.361218719826872	-0.569810125202964	-0.738131057240391	-0.866203985390293	0.0880570727259453	-0.491870519178483
68	0.0001	-8.78074035644531	0.9053173828125	-4.70800964355469	0.345513667391941	0.817097708572991	-0.461488505046592	0.361041942433928	-0.569668028739878	-0.738327199035196	-0.866180709464778	0.0884854320009191	-0.491834633667357
69	0.0001	-8.78253662109375	0.933458862304688	-4.61759765625	0.345598584090515	0.817197788151286	-0.461247649007861	0.36112359666894	-0.56950231566214	-0.738415100322542	-0.866112790924785	0.0886278031777144	-0.491928598376199
70	0.0001	-8.81067810058594	0.897533569335938	-4.61580139160156	0.345913698086524	0.817113721388137	-0.461160362341925	0.361010285264814	-0.569573574560632	-0.738415544998372	-0.866034229929235	0.0889444179330793	-0.492009759160754
71	0.0001	-8.83163452148438	0.911304931640625	-4.62418395996094	0.346002758754911	0.817091838967164	-0.461132321169585	0.360980321820807	-0.569590881057103	-0.738416843980918	-0.866011142071589	0.08903457143072	-0.49203409119492
72	0.0001	-8.7705615234375	0.937051391601563	-4.66789306640625	0.346243034959421	0.817068638613847	-0.46099305909721	0.360975796811862	-0.569587955425708	-0.738421312767991	-0.865916990743414	0.0892658995791559	-0.492157865236546
73	0.0001	-8.81906066894531	0.926273803710938	-4.665498046875	0.346507670914701	0.817064915437317	-0.460800779034367	0.361049372150608	-0.569557749105927	-0.738408641135138	-0.865780448420338	0.0894924264661565	-0.492356903819048
74	0.0001	-8.78313537597656	0.94124267578125	-4.59484497070313	0.346576317050246	0.817027600574886	-0.460815316974958	0.360921409509512	-0.569592931436282	-0.738444059232309	-0.865806325119859	0.0896091086701927	-0.492290173602702
75	0.0001	-8.8184619140625	0.935853881835938	-4.59304870605469	0.346741540169697	0.81701736232307	-0.460709164206009	0.360852525151875	-0.569574763335985	-0.738491735947175	-0.865768883370304	0.0898176966605682	-0.492318008968114
76	0.0001	-8.77116027832031	1.00171691894531	-4.64753540039063	0.346853071422913	0.817007944610362	-0.460641905701211	0.360596451551556	-0.569544678129954	-0.738640006188585	-0.865830899178886	0.0900937181905471	-0.492158486637875
77	0.0001	-8.78253662109375	0.9340576171875	-4.63136901855469	0.346813944156884	0.81699358433038	-0.460696832310951	0.360539911705797	-0.569568348422487	-0.738649354255764	-0.865870117399557	0.0900743006538459	-0.492093040142003
78	0.0001	-8.78792541503906	0.962199096679688	-4.56909851074219	0.346883197404358	0.816993349256125	-0.460645107029034	0.360523675968408	-0.569555478521247	-0.738667202434669	-0.865849136065144	0.090157773695302	-0.492114671004178
79	0.0001	-8.85618347167969	0.82628173828125	-4.68405944824219	0.347068905517202	0.81697647435139	-0.460535140005043	0.360540634643241	-0.569553267207297	-0.738660630184486	-0.86576765104394	0.090324504813844	-0.492227445634631
80	0.0001	-8.79091918945313	0.969384155273438	-4.59125244140625	0.34739011042842	0.816867193275449	-0.460486807332003	0.360268286271288	-0.569646210662329	-0.738721839791676	-0.865752200738572	0.0907258685730788	-0.4921808038597
81	0.0001	-8.80648681640625	0.968785400390625	-4.65531921386719	0.347510707628213	0.816833976425586	-0.460454735061444	0.360078754690873	-0.569659317798504	-0.738804136470292	-0.865782650844892	0.0909423806710014	-0.492087273655682
82	0.0001	-8.76996276855469	0.947230224609375	-4.59723999023438	0.34758041409854	0.816766482560493	-0.460521843891088	0.35978595688014	-0.569725064361436	-0.738896079479516	-0.86587638896492	0.0911365130127167	-0.491886384268719
83	0.0001	-8.79810424804688	0.931063842773438	-4.62298645019531	0.347710833616473	0.816726499932296	-0.460494300175451	0.359570455843102	-0.569744455169142	-0.738986023608567	-0.865913542722668	0.0913733008726205	-0.491777039335022
84	0.0001	-8.78672790527344	0.935255126953125	-4.62478271484375	0.348067902942712	0.816676561784522	-0.46031307647391	0.359468364961936	-0.569753203489679	-0.73902894510624	-0.865812467877805	0.0917642661664185	-0.491882191100962
85	0.0001	-8.83163452148438	0.892743530273438	-4.71639221191406	0.348091437095543	0.816525659220191	-0.460562915632374	0.359200932923945	-0.569963052775785	-0.738997163903269	-0.865913991807112	0.0918039558272983	-0.491696036680318
86	0.0001	-8.78433288574219	0.9436376953125	-4.6702880859375	0.348033595039309	0.816454567442331	-0.460732629652568	0.358997761538157	-0.570065402576759	-0.739016944322382	-0.866021491612424	0.0918007412146231	-0.491507273575721
87	0.0001	-8.75679016113281	0.917891235351563	-4.68106567382813	0.34812230630888	0.816373159854978	-0.460809856360066	0.359060830266207	-0.570187564494039	-0.738892049940246	-0.865959687294235	0.0917660349189975	-0.491622634564883
88	0.0001	-8.80049926757813	0.918489990234375	-4.70980590820313	0.348256220336959	0.816177732147615	-0.461054784752302	0.3588375475953	-0.570454394278726	-0.738794557697797	-0.865998394589971	0.0918460320017548	-0.491539507031862
89	0.0001	-8.79690673828125	0.9819580078125	-4.64993041992188	0.348266104619544	0.816089156307278	-0.461204086420323	0.358659768277092	-0.570575767269849	-0.73878715772802	-0.866068063718177	0.0918791748009206	-0.491410547551993
90	0.0001	-8.81067810058594	0.925675048828125	-4.64573913574219	0.348028964639258	0.815915627510055	-0.461689861873747	0.358155134559243	-0.570840351781242	-0.73882757959291	-0.866372171391127	0.0917768029686193	-0.490893347964589
91	0.0001	-8.88192993164063	0.871787109375	-4.75471252441406	0.347304913720303	0.815329889501859	-0.463267167183926	0.356449950906384	-0.571718209195527	-0.738973424267136	-0.867365395554013	0.0915175423574448	-0.489184842402423
92	0.0001	-8.93402160644531	0.921483764648438	-4.48467407226563	0.346423592961966	0.814737871565865	-0.46496547707937	0.354326334573482	-0.572585196322499	-0.739323367397546	-0.86858709572906	0.0913695440978539	-0.487040104657005
93	0.0001	-8.8519921875	0.90292236328125	-4.3254052734375	0.345784190944964	0.81419040277247	-0.466398200388617	0.352662954087442	-0.573386379461155	-0.739497735400689	-0.869518334543244	0.0912252590110441	-0.48540273795222
94	0.0001	-8.83043701171875	0.916693725585938	-4.26972106933594	0.345556077525373	0.814034581331926	-0.466839049010507	0.352150456553091	-0.573617505772801	-0.739562717435404	-0.869816677946985	0.0911628074751236	-0.484879664760779
95	0.0001	-8.966953125	0.839454345703125	-4.35175048828125	0.345394584037514	0.81387163017464	-0.467242496905437	0.351832530849563	-0.573869018135482	-0.739518911360764	-0.870009454864454	0.0910347165706174	-0.484557766241924
96	0.0001	-8.90109008789063	0.844843139648437	-4.33678161621094	0.345292217164133	0.813633750602367	-0.467732193297193	0.351480769527416	-0.574225443579918	-0.739409499937526	-0.870192250837878	0.0909134743928082	-0.484252193340965
97	0.0001	-8.85857849121094	0.907113647460938	-4.27451110839844	0.345419565423506	0.81348986771422	-0.467888404375378	0.351227558598195	-0.574405337233791	-0.739390093684306	-0.87024394620347	0.0910645028737094	-0.484130902145872
98	0.0001	-8.90528137207031	0.941841430664063	-4.32839904785156	0.345425772486401	0.813455332429018	-0.467943861852006	0.351050231679322	-0.57444032019256	-0.739447126828527	-0.870313030202391	0.0911522938815303	-0.483990174259837
99	0.0001	-8.85917724609375	0.890348510742188	-4.30085632324219	0.345543077855611	0.813433050281767	-0.467895986363819	0.351245397914551	-0.574476556348481	-0.739326285647846	-0.870187710663579	0.0911227683693325	-0.484221012859612
100	0.0001	-8.91665771484375	0.832269287109375	-4.40084838867188	0.345812510262976	0.813273516664865	-0.467974245912297	0.351217307092512	-0.574681038607657	-0.739180699872168	-0.870092012918348	0.0912572789227717	-0.484367627014139
101	0.0001	-8.91067016601563	0.929267578125	-4.33318908691406	0.345913569454331	0.813106203261325	-0.468190244115912	0.350933424501491	-0.574898707957847	-0.739146269121379	-0.870166382960765	0.0913771186148418	-0.484211408538284
102	0.0001	-8.87234985351563	0.923280029296875	-4.37989196777344	0.346045680925615	0.813083226078594	-0.468132517757903	0.350889345049115	-0.574908431611838	-0.739159632821368	-0.870131630412164	0.0915202859001344	-0.484246820356135
103	0.0001	-8.94719421386719	0.97477294921875	-4.40923095703125	0.345971648378314	0.813206696376682	-0.467972742247362	0.350822899903981	-0.574718733174797	-0.739338671138551	-0.870187859844846	0.0916146642523988	-0.484127918914584
104	0.0001	-8.86875732421875	0.974174194335938	-4.33139282226563	0.345879333082204	0.813391583378085	-0.467719594454093	0.350887777040678	-0.574448717837297	-0.739517706683577	-0.870198399717019	0.0916668024138324	-0.484099103970625
105	0.0001	-8.89630004882813	0.961001586914063	-4.33139282226563	0.345823195833857	0.813739054309563	-0.46715636430925	0.351202560107568	-0.573941445704777	-0.739762109516432	-0.870093718513787	0.091760385753816	-0.484269504108159
106	0.0001	-8.85797973632813	0.8813671875	-4.34516418457031	0.345800406028833	0.814105600047226	-0.466534190774952	0.351654158713999	-0.573411997360492	-0.739958129857495	-0.869920359486685	0.0918191333807756	-0.484569721398025
107	0.0001	-8.98072448730469	0.801134033203125	-4.47988403320312	0.34563444311593	0.81434105939344	-0.46624614820705	0.351587769067906	-0.573059151387144	-0.740262959800974	-0.870013144943106	0.0919339327855387	-0.484381336994718
108	0.0001	-8.87474487304688	0.871787109375	-4.3828857421875	0.345327832982115	0.814562526223139	-0.466086449750316	0.351368285295746	-0.57273565618942	-0.740617442555603	-0.870223543611757	0.0919878198581319	-0.483993001128678
109	0.0001	-8.9286328125	0.887354736328125	-4.43617492675781	0.345057330956703	0.814780709738428	-0.46590539103039	0.35115716273566	-0.572411956594021	-0.740967744917176	-0.870416041564307	0.0920703371686477	-0.483631024233531
110	0.0001	-8.88612121582031	0.892743530273438	-4.36073181152344	0.344710143101486	0.815106481102085	-0.465592463113751	0.351131930374963	-0.571949316513376	-0.741336864597353	-0.87056377406489	0.092061956340595	-0.483366642912642
111	0.0001	-8.9430029296875	0.85023193359375	-4.3445654296875	0.34455237375839	0.815329495706968	-0.465318681300978	0.351058703587451	-0.571612893149119	-0.741630964173687	-0.870655757675189	0.0921765361462235	-0.483179094964928
112	0.0001	-8.89330627441406	0.8095166015625	-4.33259033203125	0.344246261808762	0.815475782303653	-0.465288899187309	0.350875008931323	-0.571411897036255	-0.741872746522523	-0.870850870894746	0.0921286730701855	-0.482836481906856
113	0.0001	-8.86935607910156	0.823287963867188	-4.31822021484375	0.344169925996991	0.815649856929406	-0.465040184210209	0.350960182241838	-0.571156139872322	-0.742029389153101	-0.870846721599158	0.092173612152222	-0.482835388826057
114	0.0001	-8.92204650878906	0.808917846679688	-4.3924658203125	0.343942426970871	0.815800072855876	-0.464944994658222	0.350794510653401	-0.570937285038201	-0.74227611294494	-0.871003339961925	0.0922000958869075	-0.482547742812685
115	0.0001	-8.83941833496094	0.860410766601563	-4.30025756835937	0.34375441599312	0.815872656801766	-0.46495667472191	0.350653675634981	-0.570838260084889	-0.742418804036465	-0.871134261321931	0.0921709754016097	-0.482316918679627
116	0.0001	-8.90767639160156	0.871787109375	-4.37091064453125	0.343771420586887	0.815972828210944	-0.464768279908502	0.350690354604088	-0.570679275602542	-0.742523696312392	-0.87111278579489	0.0922686730108929	-0.482337025745978
117	0.0001	-8.88911499023438	0.877774658203125	-4.33139282226563	0.343754997146316	0.816178789185935	-0.464418653824237	0.350726914665254	-0.570356712434895	-0.742754233855217	-0.871104547839309	0.0924413579705488	-0.482318838601846
118	0.0001	-8.89270751953125	0.85502197265625	-4.3541455078125	0.343870867279636	0.816275954819401	-0.464162032290478	0.350896699731203	-0.570199611335261	-0.742794661633259	-0.870990432068057	0.0925525192352554	-0.482503573488432
119	0.0001	-8.90707763671875	0.830473022460938	-4.42060729980469	0.343975633025695	0.816347835428378	-0.463957945805409	0.351021611949089	-0.570080004502913	-0.74282744726526	-0.870898726505692	0.0926552753887259	-0.482649363527399
120	0.0001	-8.95437927246094	0.874780883789062	-4.37689819335938	0.343764406228291	0.816601478201269	-0.463668048079672	0.35105869188284	-0.569713651557423	-0.743090943345845	-0.870967179556165	0.0926735184861855	-0.482522321874719
121	0.0001	-8.89091125488281	0.915496215820313	-4.31283142089844	0.343587461176693	0.816959495879112	-0.463168261666428	0.351142749614564	-0.569178595763977	-0.74346115938714	-0.871003114756359	0.0928057553015606	-0.482432032381379
122	0.0001	-8.88192993164063	0.904718627929687	-4.26612854003906	0.343382543132107	0.81724653576981	-0.46281370857438	0.351158029172359	-0.568754284116426	-0.74377859800279	-0.871077762096996	0.0928798367325009	-0.482282975346044
123	0.0001	-8.86576354980469	0.737666015625	-4.36612060546875	0.343529976311832	0.817236074559625	-0.462722761287542	0.351341312325028	-0.56876537374668	-0.743683556279502	-0.870945714513206	0.0929039722787707	-0.48251675028532
124	0.0001	-9.02742736816406	0.779578857421875	-4.55472839355469	0.343515362494236	0.817112370321312	-0.46295201695029	0.350866399870706	-0.568915963739362	-0.743792575685105	-0.871142907433806	0.0930698687567592	-0.482128649177142
125	0.0001	-8.86755981445313	0.812510375976563	-4.41402099609375	0.34339980184524	0.817084279632212	-0.463087309338704	0.350431990933437	-0.568934503135692	-0.743983165718265	-0.87136329726646	0.0932030638962753	-0.481704466511646
126	0.0001	-8.96934814453125	0.836460571289063	-4.454736328125	0.343147916097685	0.817004287360592	-0.463415043036182	0.349952268327034	-0.569054946443927	-0.744116844198855	-0.871655274503963	0.0931689989326412	-0.481182522612065
127	0.0001	-8.83223327636719	0.858614501953125	-4.35175048828125	0.343049087068006	0.816872028283381	-0.463721266786421	0.349670911809646	-0.569254133120676	-0.744096758062578	-0.871807075731792	0.0931118753608983	-0.480918497638382
128	0.0001	-8.90528137207031	0.906514892578125	-4.3828857421875	0.343065012228171	0.816771610025585	-0.463886337846998	0.349445645400453	-0.569388442754528	-0.744099820029702	-0.871891127547211	0.0931715531360727	-0.480754535486318
129	0.0001	-8.86037475585938	0.929267578125	-4.29846130371094	0.342968199402526	0.816740244299618	-0.464013132939134	0.349126689841805	-0.569421257093065	-0.744224419386154	-0.872056975569082	0.0932459399220936	-0.480439201199644
130	0.0001	-8.87773864746094	0.892743530273438	-4.30444885253906	0.343045956196911	0.816771746645316	-0.46390018950083	0.349092020708014	-0.569353665387041	-0.7442923919995	-0.872040270294293	0.0933826407438794	-0.480442972050541
131	0.0001	-8.90168884277344	0.896934814453125	-4.36791687011719	0.343159445927399	0.81678506228666	-0.463792795002443	0.349025384554924	-0.56930563502835	-0.744360379696055	-0.872022290774203	0.0935588368372756	-0.480441326742994
132	0.0001	-8.93282409667969	0.880768432617188	-4.38707702636719	0.342996123956469	0.816955517803078	-0.463613352786505	0.349090190730534	-0.569067059617416	-0.744512404459528	-0.872060604365636	0.0935219952176655	-0.480378953248317
133	0.0001	-8.87773864746094	0.891546020507813	-4.38168823242188	0.342995564554179	0.817113313105702	-0.463335597857086	0.348921158820323	-0.568795476197389	-0.74479912136419	-0.872128469678432	0.0937952013847652	-0.480202449570541
134	0.0001	-8.938212890625	0.877175903320313	-4.39545959472656	0.343035017299048	0.81737483351114	-0.46284485354088	0.349063492927303	-0.5683832892854	-0.745047055135781	-0.872055992933959	0.094014988186702	-0.480291085888778
135	0.0001	-8.83582580566406	0.863404541015625	-4.32899780273438	0.342947650421729	0.817557987142461	-0.462586042515101	0.349177662741519	-0.568115832026561	-0.745197531694207	-0.872044648462787	0.0940390294523283	-0.48030697686696
136	0.0001	-8.96815063476562	0.82149169921875	-4.38468200683594	0.3429318629472	0.817704922571626	-0.462337968349663	0.349226930120002	-0.567887101602018	-0.745348771457375	-0.872031128260066	0.094142973376613	-0.480311161549768
137	0.0001	-8.86815856933594	0.92208251953125	-4.41342224121094	0.342970592716346	0.817818563153824	-0.462108180292033	0.349104401288575	-0.567683830433729	-0.745560987220385	-0.872064957175063	0.0943814940817557	-0.480202919651839
138	0.0001	-8.87773864746094	0.918489990234375	-4.35175048828125	0.342790129193707	0.818008315945488	-0.461906183517162	0.349181545970936	-0.567417444962429	-0.745727625279939	-0.872105025372925	0.0943389537589689	-0.480138507644361
139	0.0001	-8.94000915527344	0.861009521484375	-4.38468200683594	0.34272323557617	0.818136092026706	-0.461729486517235	0.349188350307533	-0.567223522068516	-0.745871954172894	-0.872128591324527	0.0943970917743575	-0.48008427308009
140	0.0001	-8.88432495117187	0.879570922851563	-4.39545959472656	0.342815343586837	0.818190115262775	-0.46156535343083	0.349115707883814	-0.567112234178889	-0.745990573903862	-0.872121472451071	0.0945972998077466	-0.480057796685837
141	0.0001	-8.87055358886719	0.902323608398438	-4.37749694824219	0.342935469011459	0.818408365069475	-0.461088941613438	0.349404021100085	-0.566769493998631	-0.746116057132956	-0.871958768596877	0.0947633297053531	-0.480320535903028
142	0.0001	-8.91067016601563	0.838855590820313	-4.41282348632812	0.343031155750443	0.818398904278645	-0.46103455365084	0.349404493408865	-0.566768018514728	-0.746116956766554	-0.871920940320973	0.0948538173422799	-0.480371342989345
143	0.0001	-8.8903125	0.886755981445313	-4.34276916503906	0.343129864810536	0.818402003843227	-0.460955590030639	0.349410531742966	-0.566746269269182	-0.746130649803747	-0.871879679876875	0.0949569711756586	-0.480425850098581
144	0.0001	-8.88013366699219	0.896934814453125	-4.44515625	0.34334886516234	0.818477089001837	-0.460659105598504	0.349592024865576	-0.566605816475799	-0.746152306761951	-0.871720696635178	0.0951477982660314	-0.48067652693158
145	0.0001	-8.86037475585938	0.874780883789062	-4.52479064941406	0.343523776085851	0.818533162744139	-0.460429013803208	0.349703650620594	-0.56649620070404	-0.746183229060074	-0.871607005482602	0.095317973520029	-0.480848949169786
146	0.0001	-8.91665771484375	0.90292236328125	-4.44216247558594	0.343470156335928	0.818603970424919	-0.460343123453726	0.349699665932436	-0.566390500422998	-0.74626533128461	-0.871629735239291	0.095338033518346	-0.480803768716031
147	0.0001	-8.84600463867188	0.86460205078125	-4.43677368164063	0.343499126371784	0.818688225346223	-0.460171641739551	0.349768735301522	-0.566256300109406	-0.746334800469589	-0.871590604577284	0.0954116987892956	-0.480860089575695
148	0.0001	-8.9142626953125	0.889151000976563	-4.51101928710938	0.343496857138642	0.818707598497128	-0.460138867407375	0.349716298540867	-0.566219538669896	-0.746387261790637	-0.871612539876952	0.0954636171089058	-0.480810022917299
149	0.0001	-8.85618347167969	0.919088745117188	-4.46790893554688	0.34345735133518	0.818682984998629	-0.460212144437278	0.349435366076775	-0.566235700842681	-0.746506567972438	-0.871740771530512	0.0955787694257114	-0.48055460260667
150	0.0001	-8.77894409179688	0.93884765625	-4.4020458984375	0.343531773178636	0.818801901195159	-0.459944961289863	0.349613697816455	-0.566049059884105	-0.7465646148214	-0.871639938917352	0.095665607213426	-0.480720197704071
151	0.0001	-8.88252868652344	0.87418212890625	-4.55652465820313	0.343303813225847	0.819100296079704	-0.459583721194229	0.349733857922747	-0.565618257846636	-0.746834797671486	-0.871681547611893	0.0956592460386246	-0.480646011322529
152	0.0001	-8.82564697265625	0.829275512695313	-4.49664916992188	0.343017771917081	0.819383027273335	-0.459293220900796	0.350028654211127	-0.565241919373278	-0.74698160205882	-0.871675828149542	0.0954621768010683	-0.48069556209748
153	0.0001	-8.89270751953125	0.837658081054688	-4.5170068359375	0.342706772227448	0.819513844406417	-0.45929198457589	0.349935778864411	-0.565074330634753	-0.74715189321064	-0.871835431110713	0.0953313153370999	-0.480432015352949
154	0.0001	-8.86217102050781	0.852626953125	-4.45533508300781	0.342404938011038	0.819636007792027	-0.459299110772496	0.34994248397761	-0.564929956027733	-0.747257922467259	-0.871951326814311	0.0951365309082242	-0.480260267098488
155	0.0001	-8.90707763671875	0.862805786132813	-4.44395874023438	0.34232000317006	0.819703975341297	-0.459241122112692	0.349865062586926	-0.564825993301895	-0.747372755237689	-0.87201574149249	0.0951682200117347	-0.480137018453172
156	0.0001	-8.91785522460938	0.850830688476563	-4.521796875	0.34215489770237	0.819790157150378	-0.459210326775911	0.349752227688411	-0.564702733548515	-0.747518696722583	-0.872125796663116	0.0951573484403263	-0.479939239729918
157	0.0001	-8.87115234375	0.837658081054688	-4.41940979003906	0.34183462640356	0.819873353766633	-0.459300306961569	0.349518244097072	-0.564598635048072	-0.747706746221507	-0.872345164046227	0.0950582194515964	-0.479560058470109
158	0.0001	-8.89390502929688	0.847238159179688	-4.48706909179687	0.341486886142171	0.819811264073539	-0.459669661704	0.348986732706849	-0.564703431522084	-0.747875855220491	-0.872694085569234	0.0949711836576171	-0.478942070909572
159	0.0001	-8.81307312011719	0.818497924804688	-4.44874877929688	0.34163943440421	0.819799002889357	-0.45957816715069	0.349023445148507	-0.564700349119402	-0.747861050223297	-0.872619694710496	0.0950952709972556	-0.479052980198766
160	0.0001	-8.92144775390625	0.829275512695313	-4.512216796875	0.341761292830374	0.819760581272217	-0.459556098985911	0.349015226283962	-0.564740354872856	-0.747834676516164	-0.872575263541699	0.0951888699918059	-0.479115318566227
161	0.0001	-8.84780090332031	0.828078002929688	-4.53736450195313	0.341993101691201	0.819609865898957	-0.459652462319878	0.348770332194045	-0.564917635958352	-0.747815030582083	-0.872582359308786	0.0954344398229517	-0.479053539720553
162	0.0001	-8.86276977539062	0.8813671875	-4.50862426757813	0.342212900444879	0.81954544679779	-0.45960373301586	0.348603768078086	-0.564965035999146	-0.747856885359922	-0.872562744821748	0.0957066807046084	-0.479034954484162
163	0.0001	-8.90288635253906	0.875379638671875	-4.53197570800781	0.342176048097966	0.819645612511614	-0.459452524205189	0.348509088060251	-0.564798194992425	-0.748027014534042	-0.872615016858793	0.0958335474860473	-0.47891435928438
164	0.0001	-8.87055358886719	0.834065551757812	-4.53437072753906	0.342044555993951	0.819860926482353	-0.45916618227217	0.3484595494428	-0.564465564913481	-0.748301121493898	-0.872686349221198	0.0959514838572246	-0.478760742572504
165	0.0001	-8.84480712890625	0.8669970703125	-4.52000061035156	0.341945477316556	0.819932971484653	-0.459111329434484	0.348344257240553	-0.564353216287097	-0.748439527092161	-0.87277120082544	0.0959967162915283	-0.478596971857285
166	0.0001	-8.86516479492188	0.9148974609375	-4.512216796875	0.341845616185064	0.820218618312295	-0.458675258618692	0.348380864191957	-0.563909200510482	-0.748757094820806	-0.872795708147055	0.0961656474709075	-0.478518359194903
167	0.0001	-8.842412109375	0.923878784179687	-4.45533508300781	0.341528194804543	0.820619695416811	-0.458194072034515	0.348353790063514	-0.563308103088659	-0.749222008448124	-0.872930769936503	0.0962667984752639	-0.478251580665854
168	0.0001	-8.82205444335938	0.93166259765625	-4.38887329101563	0.341450372470933	0.820961842815297	-0.457638826784586	0.348462196184592	-0.562774194192227	-0.749572747758015	-0.872917946298317	0.0964720632753376	-0.478233624955133
169	0.0001	-8.8855224609375	0.837059326171875	-4.53916076660156	0.341292403247286	0.821264905732804	-0.457212696780591	0.348479288438511	-0.562307983859845	-0.74991460634986	-0.872972898213387	0.0966110029922333	-0.478105253145951
170	0.0001	-8.79810424804688	0.837059326171875	-4.48886535644531	0.341563068580601	0.821426520261591	-0.456719982037942	0.348614177348489	-0.562008431422454	-0.750076448344906	-0.872813167598564	0.096979352549951	-0.47832225501805
171	0.0001	-8.92084899902344	0.828078002929688	-4.54694458007812	0.341641816929478	0.821453259995431	-0.456612976784502	0.348549441571203	-0.561942926664793	-0.750155606492287	-0.872808200984345	0.0971323263094565	-0.478300277524679
172	0.0001	-8.94420043945312	0.877175903320313	-4.45653259277344	0.341413572472724	0.821673929618518	-0.456386596994999	0.348526467645642	-0.561619433603583	-0.750408497519346	-0.872906681084447	0.0971368374204868	-0.478119609443163
173	0.0001	-8.81786315917969	0.831670532226563	-4.40982971191406	0.341236636303524	0.821769959802561	-0.456346021359182	0.348192816794067	-0.561456751279765	-0.750685072966944	-0.8731089968482	0.0972648426126864	-0.477724010297012
174	0.0001	-8.82025817871094	0.901126098632813	-4.42180480957031	0.341395106065172	0.821839455831133	-0.456102280627861	0.34828012138224	-0.561323053318236	-0.750744555000877	-0.87301222133755	0.0974491593225871	-0.477863288757986
175	0.0001	-8.84121459960938	0.923878784179687	-4.49664916992188	0.341432608193954	0.821924471323198	-0.455920977255878	0.348347835109702	-0.561183749880616	-0.750817277800873	-0.872970537782495	0.0975344160284521	-0.477922041606925
176	0.0001	-8.85438720703125	0.910107421875	-4.53796325683594	0.341289482189096	0.822075635832102	-0.455755568609253	0.348505231252238	-0.560978656343031	-0.750897496944418	-0.872963683744589	0.0974402180765863	-0.477953774714945
177	0.0001	-8.83881958007813	0.911304931640625	-4.45413757324219	0.341319763589161	0.822112428293974	-0.455666516465742	0.348548552938172	-0.560917296444537	-0.75092322696402	-0.872934548078002	0.0974830333644576	-0.477998256249873
178	0.0001	-8.83223327636719	0.85981201171875	-4.51281555175781	0.341321810084719	0.822148481023684	-0.455599930982151	0.348645380376775	-0.560868314125342	-0.750914863984014	-0.872895080008144	0.0974608093576397	-0.478074858089117
179	0.0001	-8.89689880371094	0.908311157226563	-4.4834765625	0.341146039436267	0.822176583190145	-0.455680859627358	0.348481322184882	-0.560836020554117	-0.75101513043167	-0.873029293818498	0.0974095688461902	-0.477840169964784
180	0.0001	-8.81906066894531	0.944835205078125	-4.53197570800781	0.341100435627547	0.822196357403167	-0.455679320013166	0.348349306815403	-0.560797083562896	-0.751105446331325	-0.873099795702602	0.0974668196891378	-0.477699660669504
181	0.0001	-8.88971374511719	0.9627978515625	-4.48587158203125	0.340827386413081	0.822373146943429	-0.45556459460453	0.34838256597034	-0.560559539727151	-0.751267322694662	-0.873193151827676	0.0973417156580101	-0.47755450997138
182	0.0001	-8.8519921875	0.9436376953125	-4.48108154296875	0.340814130562494	0.822447407087481	-0.455440436263635	0.348384351520553	-0.560439691390282	-0.751355904967792	-0.873197613386875	0.0974043884506497	-0.477533572731824
183	0.0001	-8.89630004882813	0.92687255859375	-4.45892761230469	0.340837137765688	0.82244439833653	-0.455428652112005	0.348228039324	-0.560422971811842	-0.751440832863204	-0.87325098233455	0.097525916096424	-0.477411161936226
184	0.0001	-8.8519921875	0.949026489257813	-4.46311889648438	0.340722867054303	0.822639311187498	-0.455162049774863	0.348164942118956	-0.560115251173566	-0.751699460211378	-0.873320732002625	0.0976497265317822	-0.477258242425071
185	0.0001	-8.84660339355469	0.90052734375	-4.48587158203125	0.340618903293043	0.822886698760115	-0.454792528218225	0.34830218842258	-0.55974103240082	-0.751914597668449	-0.873306560297979	0.0977110927712107	-0.477271614586463
186	0.0001	-8.83043701171875	0.873583374023438	-4.49605041503906	0.340503158462379	0.823054263097292	-0.454575933232852	0.348211531718832	-0.559475167871411	-0.752154416136262	-0.873387845264158	0.0978223723522951	-0.477100047382307
187	0.0001	-8.85857849121094	0.909508666992188	-4.46671142578125	0.340398688294662	0.823194389816167	-0.454400406670662	0.348095982732927	-0.55924966014855	-0.752375574051238	-0.873474624595627	0.0979327023977183	-0.476918510847093
188	0.0001	-8.83522705078125	0.892743530273438	-4.44874877929688	0.340267822271458	0.823487395310731	-0.453967310377067	0.348383652588148	-0.558820783248918	-0.752561069162102	-0.873410922610876	0.0979175263852884	-0.477038277594792
189	0.0001	-8.9142626953125	0.781375122070313	-4.57328979492187	0.34014591304019	0.823769153121162	-0.453547285526107	0.348693037939996	-0.558410783032183	-0.752722101897879	-0.873334943268751	0.0978865657760482	-0.477183714209044
190	0.0001	-8.938212890625	0.918489990234375	-4.42958862304688	0.340059722720582	0.823794646029573	-0.453565613948205	0.348315658332717	-0.558342184673775	-0.752947678775864	-0.873519082300695	0.0980631734481737	-0.476810262966126
191	0.0001	-8.7897216796875	0.921483764648438	-4.43258239746094	0.34002153384197	0.823886125801722	-0.453428062910959	0.348311297033054	-0.558196919225766	-0.753057394709072	-0.873535687240599	0.0981216137163143	-0.476767817746542
192	0.0001	-8.85378845214844	0.86939208984375	-4.51521057128906	0.339859613640377	0.823875985596297	-0.453567859723267	0.34829139115928	-0.55824169767918	-0.753033408167659	-0.873606633365697	0.0979518623100029	-0.476672720857251
193	0.0001	-8.88731872558594	0.897533569335938	-4.50922302246094	0.339815552893821	0.823757944812136	-0.453815202885881	0.34790102991585	-0.558402049453836	-0.753094963832084	-0.873779299019471	0.0980306050406827	-0.476339938573703
194	0.0001	-8.77355529785156	0.910706176757813	-4.48946411132813	0.339922534573187	0.823720633281293	-0.453802808272499	0.347820678532587	-0.558435016748928	-0.753107633511808	-0.873769675643686	0.0981562548964139	-0.476331715876907
195	0.0001	-8.87953491210938	0.8669970703125	-4.56131469726563	0.340082653106376	0.823635296975307	-0.453837731609577	0.347787704191466	-0.55854305429768	-0.753042740692086	-0.873720494133769	0.098257590405104	-0.476401032805792
196	0.0001	-8.83881958007813	0.9053173828125	-4.55951843261719	0.340263187188232	0.823456287246918	-0.454027208918174	0.347486286546617	-0.558772370329695	-0.753011765391602	-0.873770132303999	0.098453954464282	-0.476269435030001
197	0.0001	-8.86276977539062	0.848435668945313	-4.55832092285156	0.340524912054479	0.82306156063126	-0.45454642412137	0.346984857836737	-0.559321111279402	-0.752835574949267	-0.873867434284119	0.0986385415971315	-0.476052670835153
198	0.0001	-8.90109008789063	1.24960144042969	-4.38767578125	0.34052587644979	0.822936174711511	-0.454772668285253	0.34605449530404	-0.559423355114631	-0.753187756161872	-0.874235902801966	0.0991037945967467	-0.475278890914121
199	0.0001	-8.919052734375	1.00351318359375	-4.49126037597656	0.339921370696812	0.823113785696472	-0.454903459582385	0.345006058381993	-0.559123778480726	-0.753890854180602	-0.874885296152199	0.0993191629740098	-0.47403736397337
200	0.0001	-9.15496215820312	1.08075256347656	-4.50383422851563	0.338922900565826	0.822797666377878	-0.456218442936238	0.342421733611705	-0.559541462828548	-0.754758708281026	-0.876286838781915	0.0995859005020616	-0.471385218901475
201	0.0001	-8.71427856445313	1.65615600585938	-4.12302612304688	0.337813084401372	0.823488712234736	-0.455794537954556	0.341141924063427	-0.558460217140543	-0.756137800614174	-0.877214060337347	0.0999426170025258	-0.469581692203979
202	0.0001	-9.82496887207031	-0.757424926757813	-5.13731689453125	0.3363111032588	0.823502428363599	-0.456879187864915	0.340139213480511	-0.558605972857895	-0.756481779384238	-0.878180025551543	0.0990106942039066	-0.46797085930168
203	0.0001	-8.82504821777344	0.0149688720703125	-3.84221008300781	0.338687271481869	0.820767384279826	-0.460034599827687	0.336948394012102	-0.56230670645933	-0.755166834311151	-0.878496847978883	0.100757475024505	-0.467002376137268
204	0.0001	-8.83462829589844	1.55376892089844	-4.09727966308594	0.34147982928031	0.819030206101822	-0.461065123043913	0.335011475533784	-0.564397662849892	-0.754468415130983	-0.878156499409625	0.103173638408207	-0.467114935409097
205	0.0001	-8.784931640625	1.94535461425781	-4.291875	0.341431426868619	0.820512746072568	-0.458457647203003	0.336158463967243	-0.562107517031053	-0.755667007616694	-0.877736901269192	0.10389404617031	-0.467743475978788
206	0.0001	-8.62566284179688	1.609453125	-4.11105102539063	0.341535946877117	0.82269117288337	-0.45445839309065	0.339304054147141	-0.558851371765385	-0.756675560009217	-0.876485000345166	0.104232328649668	-0.47001028268986
207	0.0001	-9.19507873535156	0.709524536132813	-4.5074267578125	0.341344322843803	0.823785573533576	-0.452616153158792	0.340235743552647	-0.557173603091469	-0.757494036166126	-0.876198431904259	0.104570095419425	-0.47046934339284
208	0.0001	-8.79990051269531	0.712518310546875	-4.4020458984375	0.341872850528296	0.824128753419671	-0.451591354942272	0.340791508120426	-0.556559045375966	-0.757695966072936	-0.875776285397512	0.105137180850222	-0.471128508093284
209	0.0001	-8.87354736328125	0.963396606445313	-4.5601171875	0.341966698002259	0.824420463249239	-0.450987446868915	0.341271427348998	-0.556107960039166	-0.757811156988504	-0.875552734181448	0.105237049355195	-0.471521551056155
210	0.0001	-8.91186767578125	0.75922119140625	-4.76249633789063	0.341557353821399	0.824708464411519	-0.450771031432278	0.341632621988558	-0.555749766274971	-0.757911174794606	-0.875571656487205	0.104872045909818	-0.471567734628804
211	0.0001	-8.83642456054688	0.852626953125	-4.76489135742188	0.341102557778922	0.824237246696307	-0.451975669959312	0.340173463766482	-0.556457829980902	-0.758047952310446	-0.876316757585858	0.104821966263932	-0.470192828276625
212	0.0001	-8.81007934570312	1.25558898925781	-4.38168823242188	0.340896071448944	0.824328405828861	-0.451965206420059	0.339235313229178	-0.556233960767584	-0.758632442719864	-0.876760669013488	0.105292261028318	-0.469259276987218
213	0.0001	-8.73583374023437	1.26516906738281	-4.00567016601563	0.340607393210653	0.824836713167662	-0.451254917204247	0.339231039047096	-0.555437560087076	-0.759217636117302	-0.87687450974314	0.10551546547916	-0.468996354684602
214	0.0001	-8.74122253417969	0.526305541992187	-3.98890502929688	0.340876660052762	0.825523226153585	-0.449793848015123	0.342138381539784	-0.554575470690002	-0.758542929033222	-0.875639440927949	0.104677840969038	-0.471485014715685
215	0.0001	-9.39446411132812	0.60593994140625	-4.80740295410156	0.340823588274051	0.824471497778735	-0.451758819533709	0.340753545560384	-0.556189990621495	-0.757983981044777	-0.876199921743906	0.104400400779647	-0.470504254447313
216	0.0001	-8.765771484375	1.42683288574219	-4.08829833984375	0.341525205031931	0.823533280176929	-0.452938705311133	0.338495361458722	-0.5573509073099	-0.758143031618547	-0.876801816033034	0.105607303544116	-0.469111578240523
217	0.0001	-8.74840759277344	1.59208923339844	-4.47449523925781	0.341702776067276	0.823925603413068	-0.452090491902152	0.338597296545719	-0.556669784976553	-0.758597799407623	-0.876693266541866	0.106138355624018	-0.469194592749727
218	0.0001	-8.88492370605469	1.4178515625	-4.34696044921875	0.341118734593601	0.824933267822899	-0.450691815488471	0.339056719475842	-0.555149940190543	-0.759505816228366	-0.876743149324556	0.106271574494168	-0.469071212682029
219	0.0001	-8.9525830078125	0.691561889648438	-4.45413757324219	0.340557936410084	0.825309794398325	-0.450426503681012	0.339450336173217	-0.554677115542939	-0.759675435146389	-0.876808851015999	0.10581607043904	-0.469051380998761
220	0.0001	-8.97713195800781	0.70174072265625	-4.51101928710938	0.340319636714431	0.824904549674231	-0.451348012949335	0.339089352596637	-0.555364604649682	-0.759334291901726	-0.877041022884421	0.105369064858037	-0.468717830201488
221	0.0001	-8.84480712890625	1.01548828125	-4.36133056640625	0.339788402198619	0.824645722060903	-0.452220383019124	0.338606008307017	-0.555848645415276	-0.759195794593458	-0.87743365154848	0.104841387231646	-0.468100919304423
222	0.0001	-8.76996276855469	1.08853637695313	-4.37989196777344	0.339874334061806	0.824294088713493	-0.452796524233608	0.338206923056935	-0.556373618720492	-0.75898911295764	-0.877554279940794	0.104822000094715	-0.467879080589995
223	0.0001	-8.92144775390625	1.29510681152344	-4.42000854492187	0.340293826393388	0.823900522547665	-0.453197573541862	0.337791619260083	-0.556899201909621	-0.75878857455162	-0.877551670089117	0.105124725246309	-0.467816051953853
224	0.0001	-8.86456604003906	1.31306945800781	-4.36492309570313	0.340299972108831	0.823856859675258	-0.453272328461325	0.337530057200084	-0.556939720903401	-0.758875225426783	-0.877649924211948	0.10525218309405	-0.467603024460598
225	0.0001	-8.79990051269531	1.235830078125	-4.28349243164063	0.340401406282899	0.824045680330412	-0.452852734704576	0.337626147018814	-0.556614542367926	-0.759071034932683	-0.877573625087864	0.105493923774462	-0.467691740997009
226	0.0001	-8.95976806640625	1.025068359375	-4.45353881835937	0.340450675446674	0.824131584267451	-0.452659330402816	0.337643431821474	-0.556462652193981	-0.759174702990727	-0.877547862247822	0.105624090652004	-0.467710702184818
227	0.0001	-8.83642456054688	1.07835754394531	-4.42719360351562	0.340278196080843	0.824359525327315	-0.452373874438049	0.337869481502777	-0.556142221543404	-0.759308924539816	-0.87752775610861	0.105532944708708	-0.467768997305397
228	0.0001	-8.90707763671875	1.0873388671875	-4.36432434082031	0.340141665671811	0.824608664068481	-0.452022342829646	0.337760985308875	-0.555738325834981	-0.759652835182829	-0.8776224496201	0.105714068795633	-0.467550394697179
229	0.0001	-8.8472021484375	1.12446166992188	-4.4068359375	0.340107022251515	0.824975389027052	-0.451378799806627	0.337891805372536	-0.555144235181329	-0.760028950768999	-0.877585517928194	0.105973985697438	-0.467560876333877
230	0.0001	-8.93402160644531	1.00291442871094	-4.36492309570313	0.339779944555318	0.825211697584517	-0.451193133200922	0.337790465252446	-0.554800459117004	-0.760324964832865	-0.877751212395928	0.105934436012286	-0.467258712496876
231	0.0001	-8.86217102050781	1.04782104492188	-4.38587951660156	0.339493879339417	0.82550454002891	-0.45087266526452	0.337685941212717	-0.554352290514158	-0.76069819449568	-0.877902107867588	0.105999020718894	-0.466960487202376
232	0.0001	-8.91186767578125	1.04183349609375	-4.47988403320312	0.339074267100493	0.825751221015721	-0.450736688523698	0.337637186282631	-0.55401551448037	-0.7609651372791	-0.878083009646247	0.105838228944445	-0.466656723367929
233	0.0001	-8.78373413085938	1.03345092773438	-4.397255859375	0.3388610931526	0.825899038303512	-0.450626162219592	0.337573484553644	-0.553801602099126	-0.76114908397682	-0.878189787047045	0.105804366836982	-0.466463432526591
234	0.0001	-8.97713195800781	1.04482727050781	-4.47030395507813	0.338543882682459	0.826044888567274	-0.450597249847539	0.337294108586191	-0.553586096327229	-0.761429654181019	-0.878419446398663	0.105793553797289	-0.466033260791124
235	0.0001	-8.86696105957031	0.985550537109375	-4.42779235839844	0.337818549053693	0.826180860083445	-0.450892242500398	0.336850452026793	-0.553450343420587	-0.761724681454513	-0.878868818928401	0.105441470965717	-0.465265188162604
236	0.0001	-8.90588012695313	0.98914306640625	-4.23798706054688	0.337356633741053	0.826194457848034	-0.451213053326363	0.336613970264242	-0.553492488276133	-0.761798595722543	-0.87913681341066	0.10511319252638	-0.464832959312335
237	0.0001	-8.82205444335938	1.063388671875	-4.33857788085938	0.337147268295884	0.826145167928317	-0.451459722444115	0.336199152764264	-0.553568349934288	-0.761926644521388	-0.879375829302361	0.105101110649334	-0.464383362513195
238	0.0001	-8.87654113769531	1.11188781738281	-4.35773803710938	0.337030886040088	0.826149063534887	-0.451539485178719	0.33599151592514	-0.553560434075037	-0.762023980628552	-0.879499791404955	0.105112181249781	-0.464146039810266
239	0.0001	-8.90947265625	1.0106982421875	-4.3254052734375	0.336755555964976	0.826270136963889	-0.451523372914843	0.335920768124725	-0.553403137662155	-0.762169406869743	-0.879632271502822	0.104988704094096	-0.463922880383613
240	0.0001	-8.92025024414063	0.958606567382813	-4.27989990234375	0.336434234487415	0.826446343369691	-0.451440414003591	0.335837479951073	-0.553160411322387	-0.762382283638438	-0.879787015660597	0.10488088899563	-0.463653756804047
241	0.0001	-8.8903125	0.983754272460937	-4.30385009765625	0.336145358026272	0.826678879375773	-0.4512297958595	0.335659250649382	-0.552804472078722	-0.762718875538859	-0.879965434395514	0.104924954342531	-0.463305070364369
242	0.0001	-8.88971374511719	0.983155517578125	-4.27690612792969	0.335867971872005	0.827017122134369	-0.450816354147863	0.335750634026448	-0.55229918884893	-0.763044636798957	-0.880036486301235	0.10492037787484	-0.463171131532587
243	0.0001	-8.96036682128906	0.897533569335938	-4.30864013671875	0.335338144864231	0.827449448214731	-0.45041729457044	0.335934228827207	-0.551695669930511	-0.76340034168331	-0.880168462569119	0.104686667866843	-0.462973194763639
244	0.0001	-8.84001708984375	0.916693725585938	-4.27570861816406	0.33484775577405	0.827859292311381	-0.450028857504474	0.336158636995116	-0.55112605282817	-0.763712933416495	-0.88026947648244	0.104446474462956	-0.462835373265258
245	0.0001	-8.90288635253906	0.890348510742188	-4.263134765625	0.33460653487979	0.828126446337656	-0.449716639331819	0.336324836597523	-0.550740752057956	-0.763917684250265	-0.880297717311246	0.104360974021913	-0.462800946409802
246	0.0001	-8.93761413574219	0.874780883789062	-4.3062451171875	0.334066021545458	0.82841980206802	-0.449578163160058	0.33647528466835	-0.550368778987857	-0.764119486679124	-0.880445498629042	0.103994416470298	-0.46260229710504
247	0.0001	-8.91845397949219	0.911903686523438	-4.27211608886719	0.33394630406556	0.828430758445238	-0.449646910878748	0.336464461429174	-0.550372899476871	-0.764121284690198	-0.880495049501205	0.103885273178009	-0.462532504609786
248	0.0001	-8.90168884277344	0.978964233398438	-4.29965881347656	0.333996997482652	0.828370838614423	-0.449719645341197	0.336435187896331	-0.550461096930653	-0.764070641440347	-0.880487007296379	0.103895786724683	-0.46254545234293
249	0.0001	-8.95378051757813	0.969384155273438	-4.31462768554688	0.333877272949697	0.828395118682412	-0.449763820188804	0.33645307770375	-0.550445944347049	-0.764073680253128	-0.88052557777236	0.103782415153234	-0.462497478040274
250	0.0001	-8.97234191894531	0.9436376953125	-4.28947998046875	0.333448555234052	0.828546339618299	-0.449803317148109	0.336222674961458	-0.550247659591735	-0.764317882791957	-0.88077600662943	0.103626619258453	-0.462055353747771
251	0.0001	-8.79451171875	1.00710571289063	-4.29007873535156	0.333259647615902	0.82869942965532	-0.449661275361657	0.336238310775799	-0.550027062173018	-0.764469770000067	-0.880841532647934	0.103573578514337	-0.461942321287163
252	0.0001	-8.89210876464844	0.946631469726563	-4.26433227539063	0.333185169115203	0.828888928701826	-0.449367095988585	0.336486059146763	-0.549748789222188	-0.764560920233712	-0.880775099035818	0.10353459626752	-0.462077712397132
253	0.0001	-9.01545227050781	0.931063842773438	-4.31043640136719	0.332870639457312	0.829098983426629	-0.449212659069411	0.336470397843529	-0.549452334403144	-0.764780886001967	-0.880899999297479	0.10342634045477	-0.461863814709311
254	0.0001	-8.93581787109375	0.925675048828125	-4.32600402832031	0.332750346953534	0.829356389398655	-0.448826454173469	0.33659944389854	-0.549053069694768	-0.765010811051678	-0.880896146528918	0.103482877918907	-0.461858498902125
255	0.0001	-8.97413818359375	0.9580078125	-4.31462768554688	0.33254657299733	0.829635632238045	-0.448461251959087	0.336597362516346	-0.548617412503322	-0.765324212504216	-0.880973888565814	0.10355506949995	-0.46169400607555
256	0.0001	-8.93761413574219	0.942440185546875	-4.32241149902344	0.332210369592653	0.829832976892987	-0.448345291930267	0.336519270159993	-0.548338784571649	-0.765558200364591	-0.88113055283885	0.103449542267765	-0.461418618023256
257	0.0001	-8.85019592285156	0.899928588867188	-4.23020324707031	0.33226158642116	0.829940344909131	-0.448108538281751	0.336718366937616	-0.548168506956537	-0.76559260011308	-0.881035174982111	0.103490636644839	-0.461591495340942
258	0.0001	-8.89270751953125	0.843645629882813	-4.36612060546875	0.332514249634375	0.829766140916221	-0.448243711812102	0.336698215249405	-0.548412967705508	-0.765426370528416	-0.880947549879081	0.103592317482715	-0.461735905167235
259	0.0001	-8.85318969726563	0.741258544921875	-4.39545959472656	0.33292300255134	0.829412746514866	-0.448594215623506	0.336822748124196	-0.548948635515013	-0.764987471735498	-0.880745542548054	0.103585189505413	-0.462122708592493
260	0.0001	-9.04778503417969	0.839454345703125	-4.30744262695312	0.333505358799148	0.828876259758453	-0.4491528934128	0.336248511209876	-0.549678155430592	-0.764716198436756	-0.880744636294422	0.104009958423508	-0.462029018771924
261	0.0001	-9.03221740722656	0.953816528320312	-4.34097290039062	0.334186919875233	0.828180409080441	-0.449929230657065	0.335294245734994	-0.550611376081669	-0.764463786785517	-0.880850084498665	0.104615116234722	-0.461691245416122
262	0.0001	-9.11304931640625	1.17535583496094	-4.35534301757813	0.334583083538203	0.827577244010624	-0.45074390223923	0.333963449376783	-0.551396684832148	-0.764480287801116	-0.881205183081914	0.105250183619305	-0.460868554099402
263	0.0001	-8.52567077636719	1.46934448242188	-4.27331359863281	0.334789210035633	0.827811830298761	-0.450159703284437	0.333814261857316	-0.550938686351937	-0.764875547041123	-0.881183422122983	0.105802351099668	-0.460783722669769
264	0.0001	-9.072333984375	1.082548828125	-4.47689025878906	0.334480185349416	0.828198641289744	-0.449677680316071	0.333879172946525	-0.550351819994048	-0.76526960745987	-0.881276178891251	0.10582950814901	-0.460600056148253
265	0.0001	-8.75679016113281	0.9915380859375	-4.24098083496094	0.334286130058388	0.828451475610253	-0.449356134719202	0.33375409736359	-0.549945965747654	-0.765615854884743	-0.881397178202655	0.105960310102766	-0.46033838308284
266	0.0001	-8.67655700683594	0.995130615234375	-4.1625439453125	0.334586754091748	0.82864968758411	-0.448766530896752	0.333770627309912	-0.549548178434665	-0.765894227634788	-0.881276842048794	0.106472977068828	-0.460450467284599
267	0.0001	-9.00587219238281	1.21487365722656	-4.28648620605469	0.334649643483223	0.829041089346254	-0.447996080666035	0.3338109631643	-0.548871282307271	-0.766361896449513	-0.881237684729764	0.106916732244995	-0.460422583479761
268	0.0001	-8.85498596191406	1.025068359375	-4.34336791992188	0.334461798585186	0.829596412528477	-0.447107478809115	0.334142788014429	-0.54799944109766	-0.766841059004144	-0.881183240027355	0.107081300312115	-0.460488536902233
269	0.0001	-8.99150207519531	1.09931396484375	-4.28289367675781	0.334276208693793	0.83007609119964	-0.446355350724097	0.33424911236466	-0.547227474377413	-0.767345829577482	-0.881213338065613	0.107311574889408	-0.460377322106568
270	0.0001	-8.91186767578125	1.06638244628906	-4.4116259765625	0.333946763339548	0.830676723663047	-0.445483714651239	0.33447355924541	-0.54628996318993	-0.767915824998842	-0.881253083637582	0.107440480650315	-0.460271165398053
271	0.0001	-8.91725646972656	0.984951782226563	-4.31103515625	0.333556793601961	0.831158311273887	-0.444877204453454	0.334730152830839	-0.545572303267438	-0.768314119806024	-0.881303347450707	0.107362579643949	-0.460193096715253
272	0.0001	-8.88971374511719	0.959205322265625	-4.27630737304688	0.333412879335779	0.831406036920442	-0.444522050820058	0.334881043150824	-0.545192925596725	-0.768517638585804	-0.881300481578923	0.107371670619062	-0.460196464042511
273	0.0001	-8.92923156738281	0.990939331054688	-4.37689819335938	0.33326780908867	0.831435145060052	-0.444576390493477	0.334751988190489	-0.545157431171344	-0.76859903827755	-0.881404375884164	0.107326486934175	-0.460007990555182
274	0.0001	-8.87833740234375	1.06219116210938	-4.30444885253906	0.333245522691657	0.831553456300046	-0.444371771067215	0.334897696170164	-0.5449752717018	-0.768664742481055	-0.881357450020071	0.107335001509282	-0.460095906029516
275	0.0001	-8.9525830078125	1.05201232910156	-4.43377990722656	0.333070452458554	0.831610235122461	-0.444396771521373	0.334911458747651	-0.544915587418696	-0.768701058531636	-0.88141839582492	0.107198038357532	-0.460011078207604
276	0.0001	-8.8280419921875	1.03824096679688	-4.33139282226563	0.333205310396299	0.83172440227036	-0.444081906625025	0.335271541419029	-0.544733456559325	-0.768673178157947	-0.881230511635981	0.107237959570955	-0.460361602861103
277	0.0001	-8.90288635253906	1.04602478027344	-4.38647827148437	0.333320031502034	0.831714339387288	-0.444014655453003	0.335319839189459	-0.544732579311273	-0.768652732046691	-0.881168747769369	0.107320429995664	-0.460460599031131
278	0.0001	-8.88911499023438	1.10290649414063	-4.3445654296875	0.333451889081785	0.831669343432611	-0.443999933403327	0.335258236257279	-0.544775148243498	-0.768649434318359	-0.881142299909299	0.107452971343953	-0.46048029953507
279	0.0001	-8.87115234375	1.09811645507813	-4.48946411132813	0.333580333040798	0.83164392562813	-0.443951058534862	0.33523161231963	-0.544788770537235	-0.768651391463067	-0.881103811993781	0.107580558012874	-0.460524153576842
280	0.0001	-8.98371826171875	1.14182556152344	-4.39605834960938	0.333550134681604	0.831695923812313	-0.443876331840149	0.335278836092412	-0.54471088199464	-0.768685993826568	-0.881097275970367	0.10757297686038	-0.460538429370444
281	0.0001	-8.87115234375	1.13224548339844	-4.44096496582031	0.333417845351409	0.831826222682004	-0.443731535570567	0.335179721008975	-0.544501051309427	-0.768877857495763	-0.881185051521852	0.107627786289218	-0.46035764856567
282	0.0001	-8.83642456054688	1.12506042480469	-4.34875671386719	0.333344643255237	0.832068722560857	-0.443331692696319	0.335280167250494	-0.544108389838307	-0.769112000657931	-0.881174533370955	0.107739041407973	-0.460351757566941
283	0.0001	-8.87534362792969	1.101708984375	-4.49425415039063	0.333249383718397	0.83234237183738	-0.442889404135428	0.335355986536787	-0.543662835066116	-0.769393971942731	-0.881181712557204	0.107874453936039	-0.460306301980273
284	0.0001	-8.91366394042969	1.10350524902344	-4.49126037597656	0.333080234746114	0.832612281795274	-0.442509147278495	0.335349715600022	-0.543228891353396	-0.769703150471625	-0.881248049909024	0.107977589353661	-0.46015509855799
285	0.0001	-8.80528930664063	1.12206665039063	-4.4307861328125	0.332951485179321	0.832839076402156	-0.442179128108156	0.3353361127074	-0.542859988049833	-0.769969301263905	-0.881301877923322	0.108083792458165	-0.46002705765714
286	0.0001	-8.86815856933594	1.11907287597656	-4.43797119140625	0.332746085643431	0.833116294791164	-0.441811364546473	0.335335630457065	-0.542420812097292	-0.77027896086397	-0.88137963298169	0.108152216607688	-0.459861979954753
287	0.0001	-8.90049133300781	1.05919738769531	-4.46970520019531	0.332481176532258	0.833392927741221	-0.441488952571456	0.335289623234005	-0.541989301993721	-0.770602663553636	-0.881497099146291	0.108184215647545	-0.459629241543007
288	0.0001	-8.88791748046875	1.10709777832031	-4.4834765625	0.332321961429406	0.833627509508981	-0.441165829752902	0.335168528998913	-0.541598888014456	-0.770929764420994	-0.881603182344765	0.108331989233829	-0.459390910868101
289	0.0001	-8.84360961914063	1.09931396484375	-4.39605834960938	0.332054116146904	0.833907569249112	-0.440838099418524	0.335114214892843	-0.541160081038711	-0.771261453507777	-0.881724745556487	0.10836942668121	-0.459148712765411
290	0.0001	-8.91186767578125	1.06278991699219	-4.42779235839844	0.331855035693075	0.834197619666234	-0.440439061197276	0.335144275818448	-0.540698839925998	-0.771571823545163	-0.881788268050373	0.108439364835233	-0.459010189955359
291	0.0001	-8.90528137207031	1.09751770019531	-4.41042846679688	0.331645544276205	0.834413431539404	-0.440187980558735	0.334903743809828	-0.54033616389859	-0.771930250971885	-0.881958454431897	0.10858662555763	-0.458648263276016
292	0.0001	-8.86037475585938	1.10350524902344	-4.41701477050781	0.331397344095832	0.834658424386064	-0.439910348738924	0.334842634032048	-0.539952411691494	-0.772225228507214	-0.882074946226628	0.10861264986139	-0.458418020511169
293	0.0001	-8.86576354980469	1.0681787109375	-4.39066955566406	0.330955779717779	0.834990844545299	-0.439611830365068	0.334791821192596	-0.539457732574431	-0.772592901357629	-0.882260000415944	0.108515640767503	-0.45808476003342
294	0.0001	-8.91067016601563	1.06039489746094	-4.41342224121094	0.330800598938872	0.835152299970759	-0.439421892485156	0.334758557821978	-0.539203353140712	-0.772784867816886	-0.882330817611305	0.108537458120988	-0.457943171668714
295	0.0001	-8.89689880371094	1.10350524902344	-4.40024963378906	0.330538752193702	0.835255203801564	-0.439423346922576	0.334535992763886	-0.539051626303831	-0.772987072158828	-0.882513344286483	0.108499256686869	-0.457600380741412
296	0.0001	-8.87893615722656	1.0585986328125	-4.40982971191406	0.330365329890539	0.835365619052613	-0.439343864542525	0.334402495528357	-0.538878456091629	-0.773165558302172	-0.882628868659258	0.108509410030406	-0.4573751066074
297	0.0001	-8.86217102050781	1.08913513183594	-4.37031188964844	0.330160856006577	0.835514258027851	-0.439214906160042	0.334298294074849	-0.538648242943542	-0.773371011192223	-0.882744844074238	0.108508041204349	-0.457151556110602
298	0.0001	-8.85618347167969	1.11188781738281	-4.37390441894531	0.329897285162515	0.83571814687055	-0.439025010943177	0.334209136381856	-0.538335200383582	-0.773627471840848	-0.882877134374481	0.108491432930082	-0.456899961238214
299	0.0001	-8.83223327636719	1.0873388671875	-4.38168823242188	0.329820100312135	0.835929557460362	-0.43868038068076	0.334428061436017	-0.538006110867581	-0.773761782716934	-0.882823070130273	0.108495159492314	-0.457003530853424
300	0.0001	-8.91725646972656	1.082548828125	-4.42479858398438	0.329709897141001	0.836056334254049	-0.438521595455632	0.334335791413137	-0.537794989172912	-0.7739484015105	-0.8828991801488	0.108564983186058	-0.45683988674194
301	0.0001	-8.85438720703125	1.11667785644531	-4.37989196777344	0.3296242487628	0.836221880946109	-0.438270259605316	0.334368332661818	-0.537525301010032	-0.77412167576359	-0.882918837006276	0.108625579865081	-0.45678748960371
302	0.0001	-8.88971374511719	1.08913513183594	-4.40084838867188	0.32936213492418	0.836458444023443	-0.438015816495326	0.334341246268281	-0.537160909958488	-0.774386265281314	-0.883026905095173	0.108606759616749	-0.456583022728168
303	0.0001	-8.79391296386719	1.01249450683594	-4.35594177246094	0.329200886199725	0.836662403540002	-0.437747414644545	0.334302943789426	-0.536830529427105	-0.774631863822254	-0.883101533403176	0.108669246696948	-0.456423790487829
304	0.0001	-8.92084899902344	1.09392517089844	-4.36432434082031	0.328944373600894	0.836863662011905	-0.437555493943729	0.334252060102112	-0.536523858057614	-0.774866253009168	-0.88321637178769	0.108634068960884	-0.456209907462773
305	0.0001	-8.88731872558594	1.16996704101563	-4.3924658203125	0.328566213407871	0.837171879134859	-0.43724991502872	0.334294117439616	-0.536065277453154	-0.775165441279693	-0.883341206132762	0.108523099360837	-0.455994572832874
306	0.0001	-8.86995483398437	1.12865295410156	-4.28947998046875	0.328337462347363	0.837606496045358	-0.436588901143755	0.334587541876842	-0.535379956987015	-0.775512397371824	-0.883315168917701	0.108552565327583	-0.456037995040648
307	0.0001	-8.84480712890625	1.08554260253906	-4.33318908691406	0.328121574225073	0.838074987961341	-0.435851519535791	0.335043091122059	-0.534650063271259	-0.77581920376813	-0.883222712354838	0.108533978078923	-0.45622145497875
308	0.0001	-8.92504028320313	0.994531860351563	-4.33438659667969	0.327950629420907	0.838434732988792	-0.435287931351703	0.335452687189782	-0.534096951425505	-0.776023157602359	-0.883130726064712	0.108478776707683	-0.456412615606119
309	0.0001	-8.84959716796875	0.986748046875	-4.43677368164063	0.327991447147637	0.838555611993722	-0.435024247820547	0.335841438903517	-0.533920194927655	-0.775976644857067	-0.882967801515555	0.108414533353465	-0.456742980728261
310	0.0001	-8.91486145019531	1.07356750488281	-4.39126831054688	0.328129534293762	0.83855352108136	-0.434924132471645	0.335798710710334	-0.533888402121125	-0.776017010100829	-0.882932746368282	0.108587137187634	-0.456769743993576
311	0.0001	-8.85318969726563	1.1064990234375	-4.51580932617188	0.328114980599535	0.838569130453258	-0.43490501601733	0.335694262048724	-0.533850894739983	-0.776088000559783	-0.882977871712383	0.108650980833979	-0.456667321395
312	0.0001	-8.89869506835938	1.05799987792969	-4.38827453613281	0.327996983149018	0.838730960886925	-0.434681900123342	0.335860841228265	-0.533608420965846	-0.776182677211865	-0.882958365028944	0.108592947855893	-0.456718838347382
313	0.0001	-8.91665771484375	1.02626586914063	-4.39605834960938	0.32792574917286	0.838757370507481	-0.434684686236812	0.335750062507912	-0.533563280983827	-0.776261631611216	-0.883026952338009	0.108610766525013	-0.456581978224608
314	0.0001	-8.85318969726563	1.07476501464844	-4.49425415039063	0.327902225105492	0.83867959503821	-0.434852466518717	0.335602569781568	-0.53368917009573	-0.77623887101751	-0.883091753968338	0.108592847780482	-0.456460893707281
315	0.0001	-8.88851623535156	1.12625793457031	-4.50383422851563	0.32768893525335	0.838761892142674	-0.434854515903615	0.335370191455387	-0.533560494018507	-0.77642773901111	-0.883259189816728	0.108589536843882	-0.456137606531547
316	0.0001	-8.83522705078125	1.07895629882813	-4.45174255371094	0.327595658402845	0.838871972308742	-0.434712432155383	0.335227511816109	-0.5333668315444	-0.776622391081965	-0.883347949517735	0.108690556549909	-0.455941622359359
317	0.0001	-8.85618347167969	1.025068359375	-4.47808776855469	0.327371353175672	0.838979588807334	-0.434673724400966	0.335174128424032	-0.533217271402288	-0.776748122053403	-0.883451357322586	0.108593697068363	-0.455764312119658
318	0.0001	-8.86696105957031	1.06278991699219	-4.46371765136719	0.327113731943993	0.83906189750528	-0.434708797390291	0.334963597171998	-0.533100878945579	-0.776918812641994	-0.88362661511708	0.108529189724653	-0.455439809452842
319	0.0001	-8.81606689453125	1.08314758300781	-4.36671936035156	0.326749142423569	0.839230673923123	-0.434657191211653	0.334881380688632	-0.532869070894657	-0.777113256965766	-0.883792655996607	0.10836248996035	-0.4551572387385
320	0.0001	-8.83163452148438	1.08913513183594	-4.416416015625	0.326591258955077	0.839353142474839	-0.434539355860606	0.334883696478241	-0.532684958352319	-0.777238473686331	-0.88385013402002	0.108319145873667	-0.455055934177318
321	0.0001	-8.87534362792969	1.08554260253906	-4.39605834960938	0.326374275330645	0.839560792417258	-0.434301172273461	0.334947060951143	-0.532368731100765	-0.777427810479116	-0.883906272611858	0.10826453704638	-0.45495987873168
322	0.0001	-8.86516479492188	1.06757995605469	-4.39545959472656	0.326234902226467	0.839749061855909	-0.434041820198709	0.335039816748827	-0.532073510103015	-0.777589931158814	-0.883922570003844	0.108255683263178	-0.454930321344953
323	0.0001	-8.87893615722656	1.09572143554687	-4.39785461425781	0.326083892427028	0.839910582155579	-0.43384272390201	0.335043631095086	-0.531817657402246	-0.777763295956943	-0.883976843793014	0.108259841392202	-0.454823863027741
324	0.0001	-8.84420837402344	1.08374633789063	-4.40024963378906	0.325842822559392	0.840148056243989	-0.433563949811301	0.3350644043726	-0.531447215290133	-0.77800752071095	-0.884057860045916	0.108236319919935	-0.454671968721655
325	0.0001	-8.86815856933594	1.06458618164063	-4.42300231933594	0.325688738532858	0.84036332131393	-0.433262430615783	0.335179341207926	-0.53110869090109	-0.778189159315877	-0.884071068874158	0.10822682957359	-0.454648543976721
326	0.0001	-8.9046826171875	1.05979614257813	-4.43258239746094	0.32541665133899	0.840617711636242	-0.432973285451615	0.335115115711249	-0.530703529304625	-0.778493174796961	-0.884195601806045	0.108238749378688	-0.454403467063999
327	0.0001	-8.88013366699219	1.09392517089844	-4.3828857421875	0.325128774603882	0.840948402844743	-0.432547180868694	0.335189469067302	-0.530181027809341	-0.778817114332634	-0.884273317335177	0.108230594121565	-0.454254156552402
328	0.0001	-8.86037475585938	1.0969189453125	-4.43497741699219	0.324748353415969	0.841324289001457	-0.432101779318034	0.335285632061459	-0.529599358335841	-0.779171396153255	-0.884376645941516	0.108157109736063	-0.454070465596229
329	0.0001	-8.8280419921875	1.01129699707031	-4.37689819335938	0.324500679366401	0.841675481207205	-0.431603629995582	0.335481472541299	-0.529044205225172	-0.779464181665321	-0.884393289590251	0.108141635147085	-0.454041733847726
330	0.0001	-8.9334228515625	1.02626586914063	-4.41042846679688	0.324164228736756	0.841909581573102	-0.43139982529309	0.335353430326799	-0.528679901635282	-0.779766399875602	-0.884565220645461	0.108100962356091	-0.453716378767764
331	0.0001	-8.86217102050781	1.06997497558594	-4.42958862304688	0.324053485012745	0.84214946529316	-0.431014636593167	0.335368615603577	-0.528272385026951	-0.78003601127517	-0.88460003985939	0.108224605910031	-0.453619007710638
332	0.0001	-8.87175109863281	1.02806213378906	-4.39486083984375	0.323762964152692	0.842480187318573	-0.430586433853559	0.335508833051044	-0.527754948861666	-0.780325917099226	-0.884653246186205	0.108175079975394	-0.453527051105584
333	0.0001	-8.92264526367187	1.0346484375	-4.39306457519531	0.323469267921767	0.842737658654171	-0.430303231914708	0.335454443445367	-0.527346564274377	-0.780625337483206	-0.884781300143101	0.108161175262184	-0.453280499341178
334	0.0001	-8.80229553222656	1.01129699707031	-4.38408325195313	0.323348867509821	0.842918910055832	-0.430038627277137	0.335603145937025	-0.527062507374673	-0.780753252799561	-0.884768918033002	0.1081333639087	-0.453311302851032
335	0.0001	-8.90767639160156	1.02806213378906	-4.45174255371094	0.323247678157502	0.843081116971338	-0.429796659796403	0.335581240087667	-0.526787685258927	-0.780948119890666	-0.884814200760254	0.10820797043611	-0.45320510286965
336	0.0001	-8.90109008789063	1.07476501464844	-4.42000854492187	0.322901682722734	0.843343988966375	-0.429540940504057	0.335530820899729	-0.526380537339798	-0.781244262786114	-0.884959644007105	0.10814086269375	-0.452937062178257
337	0.0001	-8.8280419921875	1.02626586914063	-4.39126831054688	0.322711299312102	0.843594699693467	-0.429191565557134	0.335717227570413	-0.525989406916435	-0.781427595445754	-0.884958394733182	0.108088512159184	-0.452951998704591
338	0.0001	-8.92324401855469	0.97956298828125	-4.41521850585938	0.322527512401796	0.84374419234416	-0.429035827908825	0.335708118890976	-0.525756910168491	-0.781587954308895	-0.885028848487207	0.108052807902352	-0.452822844001742
339	0.0001	-8.86696105957031	1.02446960449219	-4.41581726074219	0.32242120676689	0.843930921045946	-0.428748371343291	0.335768766969022	-0.525447652498416	-0.781769850794981	-0.885044575462211	0.108098866721376	-0.452781110977996
340	0.0001	-8.91306518554688	1.00650695800781	-4.45593383789063	0.322181147882727	0.844112657655625	-0.428571031609145	0.335795903089333	-0.525172942407287	-0.781942767746906	-0.885121697518137	0.108014821894174	-0.452650393608336
341	0.0001	-8.8376220703125	1.02147583007813	-4.44815002441406	0.322065464894522	0.84424261037699	-0.428401973788778	0.335815823684965	-0.52496396750628	-0.782074526744641	-0.885156239815923	0.108015034342032	-0.452582791841476
342	0.0001	-8.91605895996094	1.03165466308594	-4.43198364257813	0.321980921070543	0.844370873732744	-0.428212697217594	0.335847655336663	-0.524752470322226	-0.782202785277314	-0.885174919929067	0.108040142921616	-0.452540261906105
343	0.0001	-8.89330627441406	1.02806213378906	-4.45533508300781	0.321702008777032	0.844584809932597	-0.428000369602576	0.335781763714313	-0.524415674035675	-0.782456904872475	-0.885301318594821	0.108003239103403	-0.452301752856923
344	0.0001	-8.86576354980469	1.05320983886719	-4.40024963378906	0.321571971591655	0.844762800598135	-0.427746744946413	0.33578907247818	-0.524120051233353	-0.782651819584796	-0.885345788881892	0.108046205952562	-0.452204435502746
345	0.0001	-8.8567822265625	1.04303100585938	-4.44695251464844	0.321302262850295	0.844942605590269	-0.427594257615333	0.335719997903264	-0.523842752142138	-0.78286707303091	-0.885469897226954	0.107985018805751	-0.451975991418138
346	0.0001	-8.84899841308594	1.04841979980469	-4.38468200683594	0.320929018197977	0.845263838606504	-0.42723952113853	0.335882661935138	-0.5233574198156	-0.783121860590882	-0.88554356340603	0.107824182204902	-0.451870051056712
347	0.0001	-8.89749755859375	0.995729370117188	-4.44276123046875	0.320761418747455	0.845405825176309	-0.427084421398258	0.335866016501837	-0.523132472274124	-0.783279283149727	-0.885610597950537	0.107802630813571	-0.451743800828927
348	0.0001	-8.90049133300781	1.05979614257813	-4.43198364257813	0.320560127782779	0.845561166677895	-0.42692800081771	0.335760044817454	-0.522879534495117	-0.783493576687359	-0.885723657118895	0.107811436371506	-0.451519985612423
349	0.0001	-8.86935607910156	1.04782104492188	-4.45174255371094	0.320229842477631	0.845774395868138	-0.426753464286629	0.33563290944774	-0.522546381196157	-0.783770265826949	-0.885891301505098	0.107754121928992	-0.451204666559329
350	0.0001	-8.861572265625	1.03584594726562	-4.40982971191406	0.32001917745292	0.84603229791057	-0.426400137141766	0.33559884976689	-0.522115391123147	-0.784072018622948	-0.885980326021688	0.107818686898346	-0.451014404047165
351	0.0001	-8.86336853027344	0.983155517578125	-4.42659484863281	0.319768802085828	0.846296126766499	-0.426064289788075	0.335665398413534	-0.521694134261439	-0.784323893927178	-0.886045514361694	0.107787272426892	-0.450893834934891
352	0.0001	-8.880732421875	1.0106982421875	-4.42240356445313	0.319539402480165	0.846491045225468	-0.425849128936193	0.335610440254569	-0.521379875245843	-0.784556344745719	-0.88614908602038	0.107777251967769	-0.450692646160909
353	0.0001	-8.88791748046875	0.976569213867188	-4.39366333007812	0.319247892721191	0.846701335361754	-0.425649658392559	0.335593281752183	-0.521055533396488	-0.784779128391996	-0.886260645767304	0.107693917254064	-0.450493160825551
354	0.0001	-8.88851623535156	0.982556762695313	-4.36671936035156	0.319085976596717	0.846869914636192	-0.425435644044323	0.335561234309726	-0.520776999880244	-0.784977690399074	-0.886331088007101	0.107715663112758	-0.450349351450989
355	0.0001	-8.8855224609375	1.01668579101563	-4.38707702636719	0.318873362264792	0.84706530883209	-0.425205998794869	0.335539581138639	-0.520461387049841	-0.785196239216326	-0.886415798780263	0.107704722103313	-0.450185211340172
356	0.0001	-8.89869506835938	1.01848205566406	-4.37390441894531	0.318606964919633	0.847291395762534	-0.424955165366273	0.335614841128408	-0.520112623378883	-0.785395147308849	-0.886483096465496	0.107611103835582	-0.450075071529444
357	0.0001	-8.86755981445313	1.01488952636719	-4.37031188964844	0.318395947763788	0.84748587635391	-0.424725452296239	0.335645533144381	-0.519804121710652	-0.785586246781881	-0.886547289504527	0.107570276718354	-0.449958374784727
358	0.0001	-8.90588012695313	1.04961730957031	-4.37390441894531	0.318206571616467	0.847650726079525	-0.424538366177838	0.33560681538676	-0.519536920279471	-0.785779519924311	-0.886629935906775	0.107562237999106	-0.449797422970132
359	0.0001	-8.85618347167969	1.04722229003906	-4.36133056640625	0.317881708237974	0.847898984527292	-0.424285907856124	0.33557412565127	-0.519146188726691	-0.786051678278175	-0.886758831791989	0.107492077699419	-0.44956003767102
360	0.0001	-8.9142626953125	0.995729370117188	-4.44276123046875	0.317652146267387	0.848164285462775	-0.42392742166218	0.335691454754831	-0.518720193391518	-0.786282778758667	-0.886796685366104	0.107455599357534	-0.44949408560114
361	0.0001	-8.88372619628906	0.956211547851563	-4.41521850585938	0.317451135130721	0.848339157155146	-0.423728039243939	0.335651419178777	-0.518436068294682	-0.786487233141406	-0.886883815168306	0.10744634720849	-0.449324360416907
362	0.0001	-8.86516479492188	0.977766723632813	-4.32959655761719	0.317180789488809	0.848493853282424	-0.423620735707307	0.335624058240544	-0.518206326398222	-0.786650300203977	-0.886990889642844	0.107333052797375	-0.449140042155887
363	0.0001	-8.92803405761719	0.985550537109375	-4.38228698730469	0.317138861618793	0.848530580785054	-0.423578559329571	0.335581191436554	-0.51814235399963	-0.786710725073546	-0.887022100291283	0.107351546166323	-0.449073979574124
364	0.0001	-8.88192993164063	1.00650695800781	-4.38108947753906	0.316934194185042	0.848601167039735	-0.423590339662129	0.335538685815944	-0.518052086713877	-0.786788297938084	-0.887111327217271	0.107229169306668	-0.448926941018931
365	0.0001	-8.90049133300781	1.01728454589844	-4.36252807617188	0.316812913987892	0.848790096128942	-0.423302433543587	0.335643610533331	-0.517740935016097	-0.786948340691311	-0.887114955481335	0.107236639830236	-0.448917986762917
366	0.0001	-8.88492370605469	1.02387084960938	-4.39366333007812	0.316623004944352	0.849005239689042	-0.423012973466016	0.335702745685366	-0.517390621845842	-0.787153486281602	-0.887160379683017	0.107224285525831	-0.448831163483731
367	0.0001	-8.8567822265625	0.961600341796875	-4.34276916503906	0.316378758436724	0.849159710038319	-0.422885644184898	0.33582783558092	-0.517173123375553	-0.787243053514612	-0.887200172485935	0.107050209274031	-0.44879405815509
368	0.0001	-8.91067016601563	0.980161743164063	-4.39545959472656	0.316162140413542	0.849273024021396	-0.422820093702607	0.335800716442097	-0.517007514991906	-0.787363390232787	-0.887287653360567	0.106951204347812	-0.448644692471058
369	0.0001	-8.89210876464844	0.97716796875	-4.41282348632812	0.315857643595536	0.849432397818679	-0.42272751332068	0.335790039596189	-0.516777693973775	-0.787518802517843	-0.887400134263155	0.106796144814114	-0.448459123179112
370	0.0001	-8.92144775390625	1.02925964355469	-4.38647827148437	0.315430464297114	0.849719642385922	-0.422469113115798	0.335700181079254	-0.516327253594134	-0.787852496105264	-0.88758605814685	0.106689720870758	-0.448116383146004
371	0.0001	-8.84600463867188	1.05201232910156	-4.40084838867188	0.314988337554433	0.850007680216852	-0.422219481759263	0.335607418920089	-0.515877775233773	-0.788186387465331	-0.887778129698232	0.106569529379735	-0.447764366421996
372	0.0001	-8.86217102050781	1.02207458496094	-4.30325134277344	0.314570179495741	0.850330647370134	-0.421880779741275	0.335616522951383	-0.515369297235742	-0.788515083551838	-0.887922942430277	0.106453170971215	-0.447504827567404
373	0.0001	-8.86696105957031	0.937650146484375	-4.39426208496094	0.314465657243469	0.851046463011033	-0.42051310111677	0.335740588860076	-0.514067004058841	-0.789311961349793	-0.887913062977633	0.107028188503674	-0.447387258937153
374	0.0001	-9.05197631835938	0.683179321289063	-4.4834765625	0.31389531536672	0.851232124199125	-0.420563433648568	0.335621288441764	-0.513832955882443	-0.78951506900996	-0.88815994152828	0.106675040101034	-0.446981380019263
375	0.0001	-8.86815856933594	0.882564697265625	-4.28468994140625	0.313900061629993	0.851042783534705	-0.42094290812673	0.335586268616097	-0.514182921680822	-0.789302083722132	-0.888171496742049	0.106499312886402	-0.447000322963768
376	0.0001	-9.16933227539062	0.935853881835938	-4.5265869140625	0.31335905248772	0.850643401489347	-0.422151522236545	0.33475923324987	-0.514952873515377	-0.78915131236805	-0.88867449607714	0.105968587613921	-0.446125877372242
377	0.0001	-8.54962097167969	1.00890197753906	-4.19308044433594	0.313332439862145	0.850331504338477	-0.422799142453599	0.334353273812733	-0.515492954136779	-0.788970786864789	-0.888836695023751	0.105845864183724	-0.445831787353097
378	0.0001	-8.94839172363281	0.947828979492188	-4.30684387207031	0.313638811225403	0.850002492340232	-0.423233338843374	0.334043867307558	-0.516001554888009	-0.788769351627817	-0.888844975688859	0.106010180494849	-0.445776234027928
379	0.0001	-8.99629211425781	0.989741821289063	-4.36612060546875	0.313559894318864	0.849552802749438	-0.424193620903611	0.333455804313198	-0.516785982838544	-0.788504581160717	-0.889093594198373	0.105793588095753	-0.44533167131167
380	0.0001	-8.86456604003906	1.05560485839844	-4.33738037109375	0.313617495543287	0.849682160156058	-0.423891841395527	0.333668862759028	-0.51655804619838	-0.788563805238872	-0.888993338846953	0.105867897023824	-0.445514120837375
381	0.0001	-8.8855224609375	1.15320190429688	-4.34336791992188	0.313587584133636	0.849854506158439	-0.423568348014138	0.333668799168436	-0.516243894538909	-0.788769531493702	-0.889003914242633	0.106016789771694	-0.445457608249967
382	0.0001	-8.90528137207031	1.08195007324219	-4.35354675292969	0.313323400444713	0.850034809122651	-0.423402019378251	0.333500145341796	-0.51594658571682	-0.789035343786422	-0.889160334130332	0.106018601985568	-0.445144871072623
383	0.0001	-8.90228759765625	1.02087707519531	-4.28169616699219	0.313007394943916	0.850354442086311	-0.422993727535649	0.333714070861051	-0.515446261798122	-0.789271860709406	-0.889191368390274	0.105888970258576	-0.445113734182411
384	0.0001	-9.02563110351563	0.9723779296875	-4.30744262695312	0.312370218883806	0.850855331819336	-0.42245715838306	0.33378032673341	-0.514660209057946	-0.789756647770799	-0.889390544047001	0.10568856857314	-0.444763292811738
385	0.0001	-8.95318176269531	0.901126098632813	-4.25115966796875	0.311364486478013	0.851428818125491	-0.422043983757278	0.334031509171519	-0.513839949054718	-0.790184445326559	-0.889648867498229	0.105059385210814	-0.444395564939891
386	0.0001	-8.91546020507812	0.916693725585938	-4.25056091308594	0.310289909314706	0.852114897051151	-0.421450322577855	0.33463150759844	-0.512861690477577	-0.790566025429172	-0.889798812260315	0.104274103515629	-0.44428030007659
387	0.0001	-8.90049133300781	0.784967651367187	-4.38528076171875	0.309453459670854	0.852831068854434	-0.420615886878211	0.335353144402195	-0.511784552151917	-0.790958178868025	-0.889818422397121	0.103709884655542	-0.444373080853728
388	0.0001	-8.9525830078125	0.849034423828125	-4.35354675292969	0.308614294384171	0.853396007851221	-0.420086266242255	0.335769766997667	-0.510953290172111	-0.791318771945053	-0.889952740808237	0.103160016701689	-0.44423206782268
389	0.0001	-8.94120666503906	0.814905395507812	-4.33079406738281	0.308149709607871	0.853684668506476	-0.419840735548104	0.3357568565804	-0.510509172894991	-0.791610837248532	-0.890118581834934	0.102970243988545	-0.443943734188361
390	0.0001	-8.93581787109375	0.833466796875	-4.27570861816406	0.307636809542316	0.854019384094523	-0.419536035407493	0.335726328993818	-0.50998599567375	-0.791960931004168	-0.890307489261412	0.102787041048307	-0.44360725733195
391	0.0001	-8.90049133300781	0.832868041992188	-4.27570861816406	0.3072144847577	0.854389218953522	-0.419092260595507	0.335934605862973	-0.509403403196565	-0.792247507661241	-0.890374753089254	0.102602316483346	-0.443515009569576
392	0.0001	-8.84959716796875	0.794547729492188	-4.25954223632812	0.30654629221365	0.854752226347871	-0.418841261438534	0.336087767901339	-0.508879776637207	-0.792519012514377	-0.890547237936966	0.102176340133248	-0.443266976572602
393	0.0001	-8.938212890625	0.795745239257812	-4.26373352050781	0.306002374211666	0.855049512438466	-0.418632151483333	0.336208150485234	-0.508448750054492	-0.79274456675232	-0.890688849444138	0.101834178185743	-0.443061139831866
394	0.0001	-8.99389709472656	0.805924072265625	-4.3062451171875	0.305522879294174	0.855329208635735	-0.418410940442963	0.336510281873712	-0.508057040931804	-0.792867500502382	-0.89073935605264	0.101439578144756	-0.443050123083993
395	0.0001	-8.93162658691406	0.779578857421875	-4.20325927734375	0.305275393373216	0.855607297056419	-0.418022831224129	0.336918053635071	-0.507629576317969	-0.792968119398249	-0.89067006199579	0.101234215910664	-0.443236363798559
396	0.0001	-9.00886596679688	0.756826171875	-4.215234375	0.30500100187435	0.855696378071358	-0.418040784387365	0.336881354066922	-0.507515527696516	-0.793056708205009	-0.890777942103238	0.101052945046088	-0.443060898929067
397	0.0001	-8.89390502929688	0.832269287109375	-4.21822814941406	0.304824338931959	0.855887022700068	-0.41777927996528	0.336984023226308	-0.507203381291148	-0.79321276975162	-0.89079957930216	0.101005615588636	-0.443028187742784
398	0.0001	-9.1154443359375	0.89334228515625	-4.39366333007812	0.304327206996697	0.856070421750092	-0.417765944143619	0.336738848048247	-0.506934259011483	-0.793488881620668	-0.891062230877692	0.10080223234184	-0.442546054844208
399	0.0001	-8.91845397949219	0.91250244140625	-4.27989990234375	0.303545175544564	0.856389766096536	-0.417680374124449	0.33678232922414	-0.506500063583676	-0.793747660350628	-0.891312509239034	0.100270903630376	-0.442162590863547
400	0.0001	-8.92025024414063	0.688568115234375	-4.27331359863281	0.303162294264459	0.856532106144893	-0.417666582909506	0.336923168988155	-0.506327083977034	-0.793798250332093	-0.891389590210301	0.0999281500594659	-0.442084791969147
401	0.0001	-8.94719421386719	0.734073486328125	-4.24277709960938	0.303029795277734	0.856608592074998	-0.417605870597174	0.337099950947775	-0.506229720318343	-0.793785294231016	-0.891367806376774	0.0997656767114901	-0.442165402881496
402	0.0001	-8.966953125	0.78556640625	-4.41761352539063	0.302987981232089	0.856735873118523	-0.417375043504935	0.337339325722739	-0.506023396537973	-0.793815155736586	-0.891291457689252	0.0997194357586115	-0.44232970913353
403	0.0001	-8.84181335449219	0.7616162109375	-4.263134765625	0.302573544872006	0.85675605058191	-0.417634193684947	0.337113926430163	-0.506047875733064	-0.793895300447667	-0.891517498734841	0.0994214124690496	-0.441941095839969
404	0.0001	-8.88731872558594	0.777782592773438	-4.28049865722656	0.302521740551311	0.856841417680489	-0.417496564585979	0.337346333793463	-0.505922458637668	-0.793876512388499	-0.891447164766322	0.0993239688761272	-0.442104853667973
405	0.0001	-8.93701538085937	0.772992553710938	-4.32480651855469	0.302326073262103	0.857086105994007	-0.41713589193205	0.337511963374766	-0.505516841732678	-0.79406447931105	-0.8914508511437	0.0992780420669563	-0.442107736144171
406	0.0001	-8.84420837402344	0.701141967773438	-4.29307250976562	0.302262845005577	0.857328069453166	-0.41668423759106	0.337916484319726	-0.505114418305843	-0.794148521401725	-0.891319035000449	0.0992371187976412	-0.442382608268693
407	0.0001	-8.95078674316406	0.70892578125	-4.44096496582031	0.30193921335348	0.857436603569867	-0.416695551089826	0.337910282824688	-0.50497545901207	-0.794239527193711	-0.891431069797784	0.0990063465345567	-0.44220853807345
408	0.0001	-8.93102783203125	0.787362670898438	-4.33378784179687	0.301590093705003	0.857679905909957	-0.416447588992054	0.337940968377313	-0.504588797948695	-0.794472181310897	-0.891537614052941	0.0988702381051995	-0.442024160816816
409	0.0001	-8.880732421875	0.790955200195313	-4.34636169433594	0.301260202930014	0.857935337925003	-0.41616012071086	0.337902258882502	-0.504166757165356	-0.79475653153118	-0.891663811967644	0.0988070691240228	-0.441783668234183
410	0.0001	-8.90288635253906	0.74485107421875	-4.31702270507813	0.300888477475202	0.8582208651682	-0.415840198528956	0.338045700279588	-0.503715700306524	-0.794981507827189	-0.891734954257787	0.0986277843949391	-0.441680123505923
411	0.0001	-8.91486145019531	0.78317138671875	-4.38647827148437	0.300680640486542	0.858361218115397	-0.415700819907844	0.338134170684316	-0.503501024929023	-0.795079870523115	-0.891771515048688	0.0985024727145181	-0.441634269296318
412	0.0001	-8.90827514648437	0.791553955078125	-4.41701477050781	0.300363235517449	0.858496024625676	-0.415651900574749	0.338102080970875	-0.503306611628141	-0.795216597874167	-0.891890637686401	0.0983210577308407	-0.441434094757116
413	0.0001	-8.88851623535156	0.758622436523438	-4.37210815429688	0.300082547330387	0.858681553060467	-0.415471365103987	0.338146609415028	-0.503015629793931	-0.795381761624024	-0.891968236726413	0.0981899517093217	-0.441306467270189
414	0.0001	-8.89689880371094	0.771795043945313	-4.37390441894531	0.299865158352659	0.858904537593356	-0.41516729412091	0.338250725448557	-0.502645818363363	-0.795571258917358	-0.892001868574086	0.0981334631171656	-0.441251050850841
415	0.0001	-8.96575561523438	0.722098388671875	-4.34516418457031	0.299521333580717	0.859060353503393	-0.415093097712615	0.338313329347469	-0.502426467652426	-0.795683188076848	-0.892093639656656	0.0978925617242243	-0.44111901392165
416	0.0001	-8.93402160644531	0.73527099609375	-4.29127624511719	0.299159798537439	0.859212761210528	-0.415038366795191	0.338222622762408	-0.502200309904286	-0.795864502402109	-0.892249333085073	0.0977152992372182	-0.440843337143961
417	0.0001	-8.88312744140625	0.750239868164063	-4.33139282226563	0.29859021974941	0.859595652570527	-0.414655513350358	0.338520307768598	-0.501617628657005	-0.796105367303083	-0.892327228038152	0.0973399645694034	-0.440768702835597
418	0.0001	-9.11185180664063	0.700543212890625	-4.38707702636719	0.297816494256068	0.860047060669031	-0.414275740520231	0.338588864647931	-0.500919615998304	-0.796515611299952	-0.892559755134327	0.0969463343436549	-0.440384481756429
419	0.0001	-8.81906066894531	0.725092163085937	-4.27930114746094	0.297715481965068	0.860186883366672	-0.414057988067177	0.338912458017431	-0.500706922314962	-0.796511722290678	-0.89247063682728	0.0968044607949959	-0.440596253696396
420	0.0001	-9.03580993652344	0.672401733398438	-4.25295593261719	0.297242369116788	0.860395922290007	-0.413963562295726	0.338806905387692	-0.500391875400937	-0.796754574442061	-0.89266839020067	0.0965755038271159	-0.440245746370233
421	0.0001	-8.98311950683594	0.719703369140625	-4.31941772460937	0.296930670673478	0.860538548631358	-0.413890786479761	0.338803785032666	-0.500181828775413	-0.796887779684456	-0.892773303846468	0.096392657823714	-0.44007304331979
422	0.0001	-8.83163452148438	0.731079711914063	-4.2535546875	0.296657880247085	0.860699619580211	-0.413751455516216	0.338878181648122	-0.499936330369441	-0.797010190386296	-0.892835752022828	0.0962280127157248	-0.439982374054477
423	0.0001	-8.95497802734375	0.796942749023438	-4.17511779785156	0.296397057675031	0.860829229834985	-0.413668733726989	0.338817201484806	-0.499734171466958	-0.797162882882939	-0.892945512435999	0.0961186502711064	-0.439783488651486
424	0.0001	-9.05976013183594	0.689765625	-4.31163391113281	0.295877908417376	0.860905805649289	-0.413880969736358	0.338754854683079	-0.499687347846178	-0.797218729603802	-0.893141316779828	0.0956752225071992	-0.439482468431897
425	0.0001	-9.11963562011719	0.6945556640625	-4.24457336425781	0.295337037786687	0.861136596208612	-0.413787139458962	0.338626380783131	-0.499340395736774	-0.797490654129037	-0.893369021373084	0.0954092860034444	-0.439077282258158
426	0.0001	-8.96575561523438	0.619711303710938	-4.21882690429688	0.294999626998373	0.861182676837845	-0.413931899211966	0.338592924720574	-0.499317357251723	-0.797519283827246	-0.893493173672854	0.0951134788637259	-0.43888879541229
427	0.0001	-8.95497802734375	0.702339477539063	-4.21762939453125	0.294917407953768	0.860990490901095	-0.414390030121046	0.338512636248007	-0.499695682172843	-0.797316386585803	-0.893550735876959	0.0948662205197831	-0.4388251162115
428	0.0001	-8.91007141113281	0.6562353515625	-4.19487670898438	0.294511884282874	0.861070301960547	-0.414512587381521	0.338542182321621	-0.499627931234284	-0.79734629937027	-0.893673285269883	0.0944979651215926	-0.438654982626224
429	0.0001	-8.97114440917969	0.670006713867188	-4.25535095214844	0.294409102595084	0.861088021074224	-0.414548791183419	0.338768818676059	-0.499638668702085	-0.797243305541311	-0.893621266422182	0.09427948186156	-0.438807943749804
430	0.0001	-8.98850830078125	0.7137158203125	-4.35953430175781	0.294183821244393	0.861211970040281	-0.414451229914192	0.338814406657838	-0.499450741280039	-0.797341680132123	-0.89367817314688	0.0941429747467039	-0.438721350228931
431	0.0001	-8.95916931152344	0.750239868164063	-4.31702270507813	0.293954750238088	0.861472504860478	-0.414072129202	0.338891313237091	-0.499003753825616	-0.797588823567873	-0.8937243885141	0.0941295757844403	-0.438630072313491
432	0.0001	-8.9046826171875	0.638871459960938	-4.26852355957031	0.293476687651761	0.861861656797711	-0.413601158541482	0.339048675369862	-0.498367099085747	-0.797919939767643	-0.893821810840893	0.093939975999371	-0.438472178563641
433	0.0001	-8.91007141113281	0.594563598632812	-4.26912231445313	0.293065232626576	0.86226797404501	-0.413045651668002	0.339252465641845	-0.49768738285626	-0.798257498243277	-0.893879485155275	0.0938147636675621	-0.438381404870849
434	0.0001	-8.93581787109375	0.61072998046875	-4.26552978515625	0.292623000940294	0.862774070534759	-0.412301688734815	0.339538439604563	-0.496827910742778	-0.798671193381772	-0.893915783142682	0.0937172893325949	-0.438328235833098
435	0.0001	-8.96336059570313	0.620908813476563	-4.32660278320312	0.292051094675582	0.863336300529785	-0.411529574011808	0.339775029333879	-0.495878431800349	-0.799160503476235	-0.894012912401133	0.0935682267801028	-0.438161955670812
436	0.0001	-8.91186767578125	0.674796752929688	-4.24636962890625	0.291510036860383	0.8638256437327	-0.410885818250575	0.340016530409295	-0.495062387794174	-0.799563625510789	-0.894097677806001	0.0933728516289264	-0.438030653174637
437	0.0001	-8.93641662597656	0.707129516601563	-4.23499328613281	0.291039515293001	0.864308583259964	-0.410203209935234	0.340179054810386	-0.494234212679048	-0.800006721025413	-0.894189136148683	0.0932910280824251	-0.437861362617206
438	0.0001	-8.95857055664063	0.63228515625	-4.23978332519531	0.290666891550335	0.864763072848278	-0.409508957160242	0.34046981316153	-0.493453076481548	-0.800365146440454	-0.894199678193981	0.0932142110887548	-0.437856193708485
439	0.0001	-8.94719421386719	0.71132080078125	-4.30444885253906	0.290381114278146	0.865090234520686	-0.409020408546476	0.340619412572601	-0.492887005407479	-0.800650245537428	-0.894235553000035	0.093173419156924	-0.437791605348172
440	0.0001	-8.95497802734375	0.680784301757813	-4.29606628417969	0.290050908514146	0.865443668320967	-0.408506704269669	0.34080732148864	-0.492281545282322	-0.800942725664069	-0.894271122249767	0.0930920895543613	-0.437736247953656
441	0.0001	-8.94839172363281	0.68737060546875	-4.28349243164063	0.289789302120724	0.865764833610893	-0.408011535693644	0.340916161549734	-0.49171611496425	-0.80124367896331	-0.894314447591326	0.0930941199387297	-0.437647293676374
442	0.0001	-8.90588012695313	0.65863037109375	-4.29965881347656	0.289429130800109	0.866101613103447	-0.407552173376489	0.341085618820944	-0.491145526440811	-0.801521473505677	-0.894366467885412	0.0929734781364304	-0.437566627481333
443	0.0001	-8.97892822265625	0.673599243164062	-4.29127624511719	0.289085095659451	0.866341404486858	-0.407286604664706	0.341150232569011	-0.490750738289195	-0.801735761761143	-0.894453087805994	0.0928239394787158	-0.437421295748133
444	0.0001	-8.92623779296875	0.7137158203125	-4.31881896972656	0.288784182004573	0.866552740266828	-0.407050420169297	0.341244312295894	-0.490405762485753	-0.801906794737686	-0.894514402091801	0.0926743570618052	-0.437327620890254
445	0.0001	-8.97593444824219	0.683179321289063	-4.28888122558594	0.288450926875281	0.866732116298721	-0.406904781688703	0.341245762852725	-0.490120404575517	-0.802080618363138	-0.894621368021049	0.0925063651597629	-0.437144347195609
446	0.0001	-8.91725646972656	0.70892578125	-4.27690612792969	0.288146084929527	0.866967220252629	-0.406619813520217	0.341333339745559	-0.489727921874309	-0.802283063335388	-0.89468619354382	0.0923818247497881	-0.437038000107508
447	0.0001	-8.98371826171875	0.701141967773438	-4.29247375488281	0.28778301626794	0.867135896934326	-0.406517246615231	0.341268131775329	-0.489462216091465	-0.802472928673241	-0.894827915178278	0.092206698600122	-0.436784760438094
448	0.0001	-8.90228759765625	0.738264770507813	-4.28349243164063	0.287446719880446	0.86732262281255	-0.406356802807007	0.341304589504773	-0.489165613348864	-0.802638262170455	-0.894922097398959	0.0920242939369211	-0.436630242782677
449	0.0001	-8.92803405761719	0.705333251953125	-4.24996215820313	0.28702783224948	0.867504241435205	-0.406265202307674	0.341262459596232	-0.488887454685631	-0.802825628839374	-0.895072598834584	0.0917902377322135	-0.436370937474723
450	0.0001	-8.94060791015625	0.675994262695312	-4.320615234375	0.286673974318269	0.867634857921282	-0.40623612070874	0.341239614506484	-0.488698596461417	-0.802950314345855	-0.895194703927606	0.091561100564369	-0.436168553340801
451	0.0001	-8.90827514648437	0.667611694335938	-4.2487646484375	0.286250543899844	0.867865177745458	-0.406042681714481	0.341383382489152	-0.488343376394935	-0.803105306227932	-0.895275383486728	0.0912731065979405	-0.43606330702623
452	0.0001	-8.94779296875	0.654439086914062	-4.24277709960938	0.285968368021281	0.868045908057078	-0.405855139177279	0.34150033889706	-0.488054575410531	-0.803231131091195	-0.895320954197119	0.0910990281298817	-0.436006142215166
453	0.0001	-8.98252075195312	0.702339477539063	-4.29546752929688	0.285567507433647	0.868290220479579	-0.405614708458233	0.341515438009321	-0.487653049223983	-0.803468548969935	-0.895443132923267	0.0909208260085373	-0.435792380725603
454	0.0001	-8.93941040039063	0.672401733398438	-4.2535546875	0.285052033089654	0.868559523125623	-0.405400657645306	0.341594793484575	-0.487230960745239	-0.803690853472591	-0.895577096343853	0.0906109578310622	-0.435581586875813
455	0.0001	-8.95557678222656	0.668809204101563	-4.21822814941406	0.284676291525066	0.868808402266738	-0.405131298709757	0.341622955254094	-0.48681551012105	-0.803930603689797	-0.89568586317246	0.0904578313707628	-0.435389728010094
456	0.0001	-8.99509460449219	0.64905029296875	-4.320615234375	0.284294494511833	0.869016492754556	-0.404953053712196	0.341776488646635	-0.486494359724421	-0.804059742658904	-0.895748554114735	0.0901863253320402	-0.435317073550378
457	0.0001	-8.9430029296875	0.667611694335938	-4.30983764648438	0.283938201592162	0.869331294954957	-0.404527128000766	0.341907068276938	-0.485953231840834	-0.804331407521625	-0.89581172929298	0.0900697289625509	-0.435211201126228
458	0.0001	-8.95976806640625	0.643062744140625	-4.26073974609375	0.283652447189734	0.869557255560406	-0.404241844080409	0.342016738151026	-0.485571870549602	-0.804515077146161	-0.895860390924729	0.089945193497009	-0.435136785550219
459	0.0001	-8.98790954589844	0.638871459960938	-4.27510986328125	0.283255915422713	0.869776966246571	-0.404047169727685	0.34213623921012	-0.485225582324567	-0.804673180910698	-0.895940221330194	0.0896892593608425	-0.435025236691053
460	0.0001	-8.98611328125	0.65384033203125	-4.27870239257813	0.282925399409759	0.870075607817093	-0.403635547307897	0.342254176201802	-0.484708126506324	-0.804934848898441	-0.895999607835436	0.0895905618937974	-0.434923250675679
461	0.0001	-8.97892822265625	0.662821655273438	-4.22780822753906	0.282625732463404	0.870277258924711	-0.403410693893973	0.342291614838055	-0.484369305625314	-0.805122864027353	-0.896079876886587	0.0894643413128557	-0.43478383809932
462	0.0001	-8.94420043945312	0.667012939453125	-4.22720947265625	0.282335930830577	0.870507138291686	-0.403117531676869	0.342435543764637	-0.483982382744708	-0.805294326044443	-0.896116242754616	0.0893217519755127	-0.434738201789738
463	0.0001	-8.91665771484375	0.695154418945312	-4.22541320800781	0.282203977930463	0.870670240181471	-0.402857602264823	0.3425003523534	-0.483689169184745	-0.805442919300411	-0.896133038938985	0.0893203250985533	-0.434703871671589
464	0.0001	-9.00287841796875	0.652044067382813	-4.23379577636719	0.281885530430364	0.870847796145576	-0.40269673910076	0.342577180937146	-0.483405131813616	-0.805580755503394	-0.896203895793335	0.0891268449158475	-0.434597495022919
465	0.0001	-8.96815063476562	0.689765625	-4.20325927734375	0.281553534175745	0.871014130889663	-0.402569237751313	0.342547974779668	-0.483135396510966	-0.805754971199396	-0.896319414253365	0.0889638827205588	-0.434392604913789
466	0.0001	-8.90408386230469	0.650846557617188	-4.21882690429688	0.281159749162686	0.871162279563957	-0.402523885149324	0.342590947122947	-0.48292120162799	-0.805865097871585	-0.89642659398312	0.0886757897236229	-0.43423031436867
467	0.0001	-8.98551452636719	0.678988037109375	-4.31163391113281	0.280782109807138	0.871425082747678	-0.402218512714737	0.342688091748306	-0.48247913892528	-0.80608855113804	-0.896507824051836	0.0884997494918628	-0.434098509273783
468	0.0001	-9.02503234863281	0.653241577148438	-4.24277709960938	0.28049106146815	0.871488433128697	-0.402284321543059	0.342625024333497	-0.482403470454052	-0.806160644285218	-0.896623029559771	0.0882881793717336	-0.433903607090657
469	0.0001	-8.94360168457031	0.661025390625	-4.25295593261719	0.28016803179811	0.871616317974925	-0.402232355981227	0.342673043458801	-0.482215546530704	-0.806252660132528	-0.896705670354022	0.0880520353196299	-0.433780796982778
470	0.0001	-8.9046826171875	0.661624145507813	-4.26253601074219	0.280070010115721	0.871638545412304	-0.402252452553496	0.342680056898925	-0.482190965246505	-0.806264380732768	-0.896733610409206	0.0879665799390079	-0.433740374851482
471	0.0001	-8.98671203613281	0.692759399414063	-4.27510986328125	0.279806958523082	0.871833193081176	-0.402013618430946	0.342706811583746	-0.481854995260591	-0.806453845447164	-0.896805501352531	0.0878785922981007	-0.433609554506746
472	0.0001	-8.96635437011719	0.693358154296875	-4.27810363769531	0.279412863122233	0.872016950897887	-0.401889150473846	0.34267096947692	-0.481560154228152	-0.806645166437825	-0.896942059778436	0.0876712906629744	-0.433368995422959
473	0.0001	-8.95437927246094	0.665216674804687	-4.27151733398438	0.279188455564192	0.872167151820643	-0.401719137663057	0.34274257871686	-0.481309596987654	-0.806764275722531	-0.896984576798397	0.0875530189807879	-0.433304901718353
474	0.0001	-8.97054565429688	0.674197998046875	-4.27989990234375	0.278834657935913	0.872343497413166	-0.401581941893219	0.342708602402579	-0.481021331154861	-0.806950613614784	-0.897107600777651	0.0873802122621147	-0.433085039145887
475	0.0001	-8.95976806640625	0.66342041015625	-4.26612854003906	0.278596684232494	0.87256433398197	-0.401267205982824	0.342753644205593	-0.480628317073936	-0.807165633690175	-0.897164325482487	0.087337872021693	-0.432976060761189
476	0.0001	-8.96815063476562	0.652044067382813	-4.30444885253906	0.278267402090237	0.872755215987536	-0.401080522963281	0.342752364903006	-0.480308535473887	-0.807356505581225	-0.897266999999079	0.0871896996065399	-0.432793122629247
477	0.0001	-8.94360168457031	0.652044067382813	-4.26912231445313	0.277821056813938	0.873021098808429	-0.400811204217286	0.342754650274475	-0.479860525798146	-0.807621895131595	-0.897404429511026	0.0869944642839477	-0.432547399804853
478	0.0001	-8.957373046875	0.707129516601563	-4.23619079589844	0.277434862099372	0.873268580437363	-0.400539490828078	0.34277473232182	-0.479438958028723	-0.807863706578057	-0.897516228362255	0.0868347392766582	-0.432347485110238
479	0.0001	-8.99389709472656	0.683778076171875	-4.28468994140625	0.277136422963508	0.873477819086766	-0.400289773327297	0.342866375308921	-0.47908382986795	-0.808035477340927	-0.897573424155102	0.0866901581639154	-0.432257752652282
480	0.0001	-8.97713195800781	0.710123291015625	-4.23379577636719	0.276824092691412	0.873733566645923	-0.399947591843945	0.342867004972461	-0.478628229951838	-0.808305161677436	-0.897669559808503	0.0866295100376595	-0.432070236632707
481	0.0001	-8.95677429199219	0.696351928710938	-4.18709289550781	0.276559374980109	0.873980576854951	-0.399590870004433	0.342945461541174	-0.478187932309239	-0.80853244325885	-0.897721183062383	0.0865693518174981	-0.431975027990016
482	0.0001	-8.93941040039063	0.707129516601563	-4.26433227539063	0.276219192900613	0.874189164169269	-0.399369832013347	0.34296222489205	-0.477833664306537	-0.808734753520883	-0.897819508459484	0.0864192947461523	-0.431800689815508
483	0.0001	-8.94839172363281	0.695753173828125	-4.22182067871094	0.276037381494193	0.874411185781952	-0.399009325952703	0.343098215461654	-0.477432351634371	-0.808914064755895	-0.897823467372545	0.0863911326021108	-0.431798093607262
484	0.0001	-8.93641662597656	0.69216064453125	-4.24816589355469	0.275757802567424	0.874630748306349	-0.398721316761798	0.343118256496582	-0.47704347678711	-0.809134959888405	-0.897901718665206	0.0863167154839782	-0.431650238325113
485	0.0001	-8.94839172363281	0.68737060546875	-4.2870849609375	0.275421858171778	0.874912457183053	-0.398335276252453	0.343307488330758	-0.476555138002428	-0.809342429938968	-0.897932496626129	0.0861591127472841	-0.431617699814742
486	0.0001	-8.96755187988281	0.6945556640625	-4.17451904296875	0.274930976247348	0.875202991370788	-0.398036031277704	0.343426174874858	-0.476071480631994	-0.809576684286106	-0.898037538586503	0.0858817164737982	-0.431454412499177
487	0.0001	-8.9909033203125	0.695154418945312	-4.25654846191406	0.274671766177214	0.875366323327882	-0.397855778955787	0.343453803767321	-0.475792207777502	-0.809729127360483	-0.898106288555452	0.085764648904062	-0.431334579480378
488	0.0001	-8.92324401855469	0.647254028320313	-4.25654846191406	0.274293743733572	0.875599231497294	-0.397603983820547	0.343490966636278	-0.475394941253862	-0.809946668410651	-0.89820760294483	0.085589927161936	-0.431158284601511
489	0.0001	-8.97892822265625	0.680784301757813	-4.29247375488281	0.273827138932218	0.875813055066305	-0.39745463962523	0.343508351396912	-0.475051333749791	-0.810140878380495	-0.898343314387529	0.0853095708462489	-0.430931046244359
490	0.0001	-8.98970581054687	0.687969360351563	-4.25175842285156	0.273547518708052	0.875909863686822	-0.397433850728396	0.343561246893803	-0.474913065687303	-0.810199512263654	-0.89840827280332	0.0850851969241435	-0.430839975655621
491	0.0001	-8.9525830078125	0.693358154296875	-4.22661071777344	0.273219451459481	0.876069332262153	-0.397308012018291	0.343575612776702	-0.474652536031325	-0.810346079366184	-0.898502604141632	0.0848969676064921	-0.430680363195175
492	0.0001	-8.95797180175781	0.690963134765625	-4.24936340332031	0.272971930439879	0.876192672072633	-0.397206151259198	0.34371286911747	-0.474461536152648	-0.810399725021366	-0.898525341209118	0.0846915114866231	-0.430673378660846
493	0.0001	-8.93701538085937	0.676593017578125	-4.24098083496094	0.272630949009168	0.876323820741923	-0.397151012642091	0.343819735869713	-0.474269454993198	-0.810466824297538	-0.898587978368752	0.0844099831816917	-0.430597956184682
494	0.0001	-8.94240417480469	0.702938232421875	-4.25235717773438	0.272403823019453	0.876446491874887	-0.397036149594202	0.343854705133854	-0.474065863039833	-0.810571094511524	-0.8986434771152	0.0842799168278063	-0.430507603484307
495	0.0001	-8.91486145019531	0.677191772460938	-4.26373352050781	0.272268790262905	0.876556465471675	-0.396885964338094	0.343948415769982	-0.473875927210581	-0.810642395202491	-0.898648537047768	0.0842043256021768	-0.430511833068255
496	0.0001	-9.02203857421875	0.691561889648438	-4.30025756835937	0.272020297691219	0.876714928162122	-0.396706304943173	0.34391730796863	-0.473596793245804	-0.81081869903629	-0.898735691359585	0.0841249794352199	-0.430345378633758
497	0.0001	-8.89809631347656	0.698148193359375	-4.22541320800781	0.27168735218229	0.876944650768407	-0.396426616352703	0.344006495114512	-0.473199052731211	-0.811013062665031	-0.89880226634294	0.0839686607191133	-0.43023685341197
498	0.0001	-8.97773071289063	0.674197998046875	-4.27510986328125	0.271433068281646	0.877107718810202	-0.39624000182563	0.34402100684616	-0.472915274320312	-0.811172417037893	-0.898873537429913	0.0838641336812567	-0.430108324483643
499	0.0001	-8.97353942871094	0.733474731445312	-4.30085632324219	0.271166686196363	0.877326385964917	-0.395938177986186	0.344020887239325	-0.472518267171213	-0.811403793639506	-0.898953979600931	0.0838146746056532	-0.429949814374187
500	0.0001	-8.97773071289063	0.707129516601563	-4.23140075683594	0.270690703318493	0.877544104703009	-0.395781363176609	0.343904014559728	-0.472151902337804	-0.811666563244104	-0.899142131093101	0.083599793180293	-0.429598071077571
501	0.0001	-8.94240417480469	0.6658154296875	-4.26133850097656	0.270478746704857	0.877711000085201	-0.395556124855129	0.344062771998951	-0.471864662631489	-0.811766314331944	-0.899145180994353	0.0834693985189059	-0.429617042266161
502	0.0001	-8.95318176269531	0.689765625	-4.27570861816406	0.270106641698116	0.877902379440609	-0.39538565260146	0.34406140736803	-0.47154248198263	-0.811954084690502	-0.899257554914328	0.083277246941634	-0.429419084428401
503	0.0001	-8.95078674316406	0.695154418945312	-4.25654846191406	0.269925599407688	0.878019014261289	-0.395250276887993	0.344184447492264	-0.471348708181338	-0.812014446546507	-0.899264831342161	0.0831444880399095	-0.429429571897111
504	0.0001	-8.93402160644531	0.693358154296875	-4.23619079589844	0.269636947707211	0.878179155961322	-0.395091491260188	0.344307940269215	-0.471085801440324	-0.812114653204151	-0.899304152497201	0.0829429787045795	-0.429386193984975
505	0.0001	-8.9621630859375	0.698148193359375	-4.24337585449219	0.269377612260713	0.878323426823481	-0.394947667300078	0.344379810156178	-0.470844927526112	-0.812223861124336	-0.899354350837039	0.0827829216444242	-0.429311937307247
506	0.0001	-8.93521911621094	0.703536987304688	-4.23140075683594	0.269189622186939	0.878431440367045	-0.39483560108168	0.344498126489915	-0.470669196739209	-0.812275537047501	-0.899365325188709	0.0826360200853516	-0.429317248701542
507	0.0001	-8.93402160644531	0.700543212890625	-4.26193725585938	0.269052965033049	0.878544063464935	-0.394678135393189	0.344522288938723	-0.470465493122369	-0.812383291436714	-0.899396961542203	0.082598718704627	-0.429258147548776
508	0.0001	-8.96276184082031	0.70653076171875	-4.26672729492187	0.268780239290554	0.878699103060452	-0.394518781869342	0.344695016130594	-0.470213631223572	-0.812455836871317	-0.899412324143739	0.082383416367005	-0.429267333821313
509	0.0001	-8.95797180175781	0.673599243164062	-4.23678955078125	0.268449119692365	0.878821111798335	-0.394472462402553	0.344755663714942	-0.470030257259503	-0.812536208176002	-0.899487966830499	0.0821280142101603	-0.429157764474827
510	0.0001	-8.96455810546875	0.732277221679688	-4.27091857910156	0.268212244440951	0.878917299845099	-0.394419284473958	0.344818573164192	-0.469882348721546	-0.812595059030594	-0.899534514920333	0.0819448497034704	-0.429095208635702
511	0.0001	-8.93581787109375	0.715512084960938	-4.25714721679688	0.267960932716717	0.879026159431505	-0.394347498499338	0.344926728958482	-0.469714996556168	-0.812645909151237	-0.899567946398486	0.0817363630542534	-0.429064886429866
512	0.0001	-8.96036682128906	0.716709594726562	-4.2775048828125	0.267792485302514	0.879114130560959	-0.3942658116849	0.34498839683868	-0.469570806956852	-0.812703059733731	-0.899594459110427	0.0816186418775789	-0.429031707960937
513	0.0001	-9.14358581542969	0.772393798828125	-4.22661071777344	0.267542474925645	0.879181479308163	-0.394285366900892	0.344751283437559	-0.469457203668006	-0.812869292378776	-0.899759732750258	0.0815466759943443	-0.428698685507032
514	0.0001	-8.97054565429688	0.638272705078125	-4.33079406738281	0.266641412850456	0.879564693355974	-0.394040996794401	0.344939227793559	-0.468851499743543	-0.813139102686259	-0.899955157817486	0.0808963620309507	-0.428411592429361
515	0.0001	-8.957373046875	0.660426635742188	-4.38767578125	0.26621837698145	0.879591658470017	-0.394266775302368	0.344688194886958	-0.468851646878586	-0.813245462037636	-0.900176551606924	0.0806017839083138	-0.428001785472752
516	0.0001	-9.01365600585938	0.54845947265625	-4.26732604980469	0.266699940806963	0.879237892469487	-0.394730123019992	0.34419463494785	-0.469447469412333	-0.813110771503781	-0.900222858433777	0.0809926040337762	-0.427830577735099
517	0.0001	-8.94839172363281	0.780177612304688	-4.26493103027344	0.267127732973335	0.879003152227604	-0.394963583954854	0.343717748219536	-0.469808366903925	-0.813104057268169	-0.900278225792126	0.0814466497837866	-0.427627828144497
518	0.0001	-8.98491577148438	0.762813720703125	-4.31762145996094	0.267247976000618	0.878798300756935	-0.395337913575586	0.343307434316537	-0.470170337238766	-0.813068176430355	-0.900399091995639	0.0815683797038383	-0.427350060917183
519	0.0001	-8.88911499023438	0.872385864257813	-4.23678955078125	0.267265702539399	0.87897270129926	-0.3949380136386	0.343273205356405	-0.469805012134581	-0.813293770452944	-0.900406880654774	0.0817938930722088	-0.427290543220455
520	0.0001	-8.96934814453125	0.9627978515625	-4.11584106445313	0.26666638488372	0.879308456716056	-0.394595586798276	0.342770320023654	-0.469179547081859	-0.813866733753717	-0.900776080324033	0.0817752441004579	-0.426515254789768
