// Start Time: Unknown
// Update Rate: 100.0Hz
// Filter Profile: human (46.1)
// Option Flags: AHS Disabled ICC Disabled 
// Firmware Version: 4.0.2
PacketCounter	SampleTimeFine	Acc_X	Acc_Y	Acc_Z	Mat[1][1]	Mat[2][1]	Mat[3][1]	Mat[1][2]	Mat[2][2]	Mat[3][2]	Mat[1][3]	Mat[2][3]	Mat[3][3]
1	9.141516	0	0	0	0	0	0	0	0	0	0	0	0	-0.369431762695313	0.878373413085938	9.03042114257813	0.902349915451163	0.430932133657189	0.00788202175474549	-0.427808397391985	0.897732253211842	-0.105151208571709	-0.0523889798161908	0.0915111890691623	0.994425008268078
2	9.141516	0	0	0	0	0	0	0	0	0	0	0	0	-0.50534912109375	0.851429443359375	9.19867126464844	0.902067813802497	0.431332791738548	0.0150227185494155	-0.427544330017164	0.897818751138232	-0.105486188549787	-0.0589873306037758	0.0887328173542179	0.994307287488443
3	9.141516	0	0	0	0	0	0	0	0	0	0	0	0	-0.507744140625	0.804127807617187	9.31782348632813	0.901900343611384	0.431579187220238	0.0177531786445834	-0.427545804538406	0.897812624290628	-0.105532349002486	-0.0614845933163293	0.0875893647807465	0.994257385168464
4	9.141516	0	0	0	0	0	0	0	0	0	0	0	0	-0.574205932617188	0.904119873046875	9.28189819335937	0.901856579924059	0.431631516868927	0.0186800131988413	-0.427462276597485	0.897750041005154	-0.106399558088086	-0.0626953852669809	0.0879721405939051	0.994147972459609
5	9.141516	0	0	0	0	0	0	0	0	0	0	0	0	-0.492775268554688	0.849034423828125	9.30524963378906	0.901889118586987	0.431554672017075	0.0188834010343357	-0.427329239819136	0.897740920226214	-0.107009162911361	-0.0631327060245992	0.0884409702096556	0.994078697195744
6	9.141516	0	0	0	0	0	0	0	0	0	0	0	0	-0.43828857421875	0.925076293945313	9.01066223144531	0.901931826555126	0.431457465527906	0.0190639892774525	-0.427192099783903	0.897760494277767	-0.10739182835002	-0.0634499025149391	0.0887161222911349	0.994033983079286
7	9.141516	0	0	0	0	0	0	0	0	0	0	0	0	-0.4071533203125	0.823287963867188	9.15735717773438	0.901908525427335	0.431502184515432	0.019154020985159	-0.427193468292349	0.897694016887074	-0.107940690629181	-0.0637710938423029	0.0891701564625786	0.993972801834435
8	9.141516	0	0	0	0	0	0	0	0	0	0	0	0	-0.45265869140625	0.896336059570313	9.14598083496094	0.901991502759721	0.431336331171576	0.0189815268275536	-0.427016280854617	0.897726576339817	-0.10837015280178	-0.0637842052106248	0.0896435359891338	0.993929379594453
9	9.141516	0	0	0	0	0	0	0	0	0	0	0	0	-0.432301025390625	0.842448120117188	9.07413024902344	0.901981059764751	0.431358823237381	0.0189666402116761	-0.427001425072503	0.897661007689691	-0.108970171421263	-0.0640308582771526	0.0901902483020739	0.993864059265401
10	9.141516	0	0	0	0	0	0	0	0	0	0	0	0	-0.453856201171875	0.875379638671875	9.12442565917969	0.902013726334294	0.431298140475757	0.0187923262710062	-0.42693789558866	0.897655534484931	-0.10926378502917	-0.0639943029874392	0.0905342776561921	0.993835134091376
11	9.141516	0	0	0	0	0	0	0	0	0	0	0	0	-0.415535888671875	0.825682983398437	9.15136962890625	0.901965191727228	0.431412614627848	0.0184918590852391	-0.42703052995391	0.897519247377186	-0.110018757831443	-0.0640602794229595	0.091336501616026	0.993757477492773
12	9.141516	0	0	0	0	0	0	0	0	0	0	0	0	-0.424517211914062	0.904718627929687	9.06634643554688	0.902004333564664	0.43134179135705	0.0182329717670701	-0.426956105667187	0.897501866689131	-0.110448554191689	-0.0640052034140751	0.0918403958964473	0.993714584585286
13	9.141516	0	0	0	0	0	0	0	0	0	0	0	0	-0.384999389648437	0.82628173828125	9.11843811035156	0.902003923962732	0.431350267574654	0.0180518093029084	-0.42695715471258	0.897455278122167	-0.110822433696448	-0.0640039779667871	0.0922549209199116	0.993676265375443
14	9.141516	0	0	0	0	0	0	0	0	0	0	0	0	-0.473016357421875	0.875978393554688	9.15496215820312	0.902066120051959	0.431228729811359	0.0178465021695458	-0.426823691763718	0.89745812714062	-0.111312381065368	-0.0640175851121882	0.0927938177603067	0.993625209111499
15	9.141516	0	0	0	0	0	0	0	0	0	0	0	0	-0.412542114257813	0.894539794921875	9.06155639648438	0.902138006542802	0.431088947061171	0.0175879752294224	-0.426676940431871	0.897466577010598	-0.111805776472323	-0.0639828543805074	0.0933598568474304	0.99357442170919
16	9.141516	0	0	0	0	0	0	0	0	0	0	0	0	-0.417332153320313	0.903521118164063	9.10047546386719	0.902202347715391	0.43096952956224	0.0172101239315012	-0.426566636438556	0.897466741693878	-0.112224561620315	-0.0638108803757881	0.0939079982870278	0.993533823985571
17	9.141516	0	0	0	0	0	0	0	0	0	0	0	0	-0.369431762695313	0.832269287109375	9.072333984375	0.902203128058112	0.430966181306699	0.0172530082037986	-0.426555859678785	0.897465219844943	-0.112277681408023	-0.0638718584029944	0.0939379036310137	0.99352707862723
18	9.141516	0	0	0	0	0	0	0	0	0	0	0	0	-0.454454956054687	0.875379638671875	9.17352355957031	0.902235873234896	0.430897767704346	0.0172494300043868	-0.426483747652414	0.897490937382048	-0.112346029326566	-0.0638908603512073	0.0940060163207883	0.993519414434906
19	9.141516	0	0	0	0	0	0	0	0	0	0	0	0	-0.5029541015625	0.832868041992188	9.27890441894531	0.902233366740799	0.430911914349658	0.0170256868019079	-0.426537897669686	0.897502309422888	-0.112049214330613	-0.0635639346728027	0.093832439231302	0.993556792315777
20	9.141516	0	0	0	0	0	0	0	0	0	0	0	0	-0.327518920898438	0.711919555664063	9.06934020996094	0.902178853095649	0.431014958033249	0.0173038428857891	-0.426655582002373	0.897526571889228	-0.111404968915159	-0.063547866787455	0.093124425927721	0.993624431021297
21	9.141516	0	0	0	0	0	0	0	0	0	0	0	0	-0.4550537109375	0.843046875	9.19507873535156	0.902160895267616	0.431074315342968	0.0167527222123816	-0.426770267497846	0.897480234334315	-0.111338976818721	-0.0630306102600228	0.0932961072650627	0.993641272562405
22	9.141516	0	0	0	0	0	0	0	0	0	0	0	0	-0.465232543945313	0.732277221679688	9.07532775878906	0.902083584870459	0.431237294779344	0.0167212887856856	-0.42701330549801	0.897516946500467	-0.110104349015565	-0.0624887416653942	0.0921831130732271	0.993779367278877
23	9.141516	0	0	0	0	0	0	0	0	0	0	0	0	-0.296982421875	0.564027099609375	9.00826721191406	0.901998578180589	0.43141023458536	0.0168456064064452	-0.427236183273711	0.897532011545899	-0.109112473861082	-0.0621917089482854	0.0912222436984416	0.99388666033543
24	9.141516	0	0	0	0	0	0	0	0	0	0	0	0	-0.370030517578125	0.804127807617187	9.09748168945313	0.902089675824285	0.431232673950716	0.0165105326550021	-0.427090535189644	0.897602115557734	-0.109105989284288	-0.0618699565432167	0.0913718942760606	0.993892994951542
25	9.141516	0	0	0	0	0	0	0	0	0	0	0	0	-0.298778686523438	0.672401733398438	9.02622985839844	0.902144603393813	0.431133541066548	0.0160929902391957	-0.427047645487976	0.89765692627052	-0.10882256752043	-0.0613630430356544	0.0913012184255054	0.993930915337391
26	9.141516	0	0	0	0	0	0	0	0	0	0	0	0	-0.310155029296875	0.56282958984375	9.13400573730469	0.902105129354008	0.431225302539917	0.0158453161074354	-0.427195017289431	0.897652615809811	-0.10827833824402	-0.0609159486199697	0.0909094042393863	0.993994329674254
27	9.141516	0	0	0	0	0	0	0	0	0	0	0	0	-0.19399658203125	0.630488891601563	9.04299499511719	0.902064688217529	0.43132613860291	0.0153967668332431	-0.427336698185236	0.897586130775334	-0.10827042174069	-0.0605197873026208	0.0910873207294494	0.994002241117784
28	9.141516	0	0	0	0	0	0	0	0	0	0	0	0	-0.334703979492187	0.602347412109375	9.15256713867188	0.90179081365753	0.431890555321239	0.0156165497854406	-0.427895101940222	0.897353229409917	-0.107995200833923	-0.0606556686423977	0.0907068348687362	0.994028752083982
29	9.141516	0	0	0	0	0	0	0	0	0	0	0	0	-0.277822265625	0.546064453125	9.13280822753906	0.901780677291596	0.431917575071598	0.0154537506056569	-0.427948858803676	0.897351475480202	-0.107796584835221	-0.0604266854307177	0.0905954623464989	0.99405285467629
30	9.141516	0	0	0	0	0	0	0	0	0	0	0	0	-0.269439697265625	0.504151611328125	9.02742736816406	0.901561998891586	0.432399211128982	0.0147269945896056	-0.4284885800654	0.897082805480829	-0.107888724453411	-0.0598623329661112	0.0909580250757495	0.994053891278624
31	9.141516	0	0	0	0	0	0	0	0	0	0	0	0	-0.35206787109375	0.852028198242188	9.29387329101563	0.9012288971271	0.433172230988654	0.0121775729677276	-0.429352739230385	0.89638182793918	-0.110253543506681	-0.0586745285318678	0.0941352051080086	0.993828890131916
32	9.141516	0	0	0	0	0	0	0	0	0	0	0	0	-0.242495727539063	1.15020812988281	9.263935546875	0.900873644274894	0.433957635866065	0.010365680122773	-0.430250533967526	0.895834092440225	-0.111201424642213	-0.0575426369879831	0.0957185932582305	0.993743828072977
33	9.141516	0	0	0	0	0	0	0	0	0	0	0	0	-0.164657592773438	0.610131225585938	8.96934814453125	0.900560922867613	0.434614803759959	0.00999982782482868	-0.430923810658584	0.895477518654084	-0.111466062066486	-0.0573994216984666	0.0960728158108079	0.993717928011196
34	9.141516	0	0	0	0	0	0	0	0	0	0	0	0	-0.0508941650390625	0.6179150390625	9.00467468261719	0.899913439677769	0.435963095012308	0.00959066601522392	-0.432391868754014	0.894959984931584	-0.109926781116662	-0.0565072820328293	0.0947776617064827	0.993893415773902
35	9.141516	0	0	0	0	0	0	0	0	0	0	0	0	-0.204175415039063	0.987945556640625	9.18010986328125	0.899502679782158	0.436822287507472	0.00901211415013935	-0.43332771936641	0.894564887078312	-0.109456614397086	-0.0558750095608147	0.0945513190987116	0.993950718779997
36	9.141516	0	0	0	0	0	0	0	0	0	0	0	0	-0.17244140625	0.698746948242188	9.03700744628906	0.899747126857895	0.436331349009874	0.00837027969584847	-0.432896722516863	0.894765651930961	-0.109521028842506	-0.0552768970287003	0.0949177643846832	0.993949235453749
37	9.141516	0	0	0	0	0	0	0	0	0	0	0	0	-0.123942260742188	0.796343994140625	9.06095764160156	0.899709317670236	0.436425871459282	0.00745670291518976	-0.433042555527756	0.894616650811456	-0.110159852908778	-0.0547475003936227	0.0958827764090048	0.993885911153162
38	9.141516	0	0	0	0	0	0	0	0	0	0	0	0	-0.0999920654296875	0.963396606445313	9.24776916503906	0.899716128563486	0.436416292000954	0.00719083297475345	-0.433032352160154	0.894562755623642	-0.110636604402341	-0.054716268013971	0.096427674073236	0.993834912692973
39	9.141516	0	0	0	0	0	0	0	0	0	0	0	0	0.0341290283203125	0.881965942382813	8.96156433105469	0.899706747870708	0.436436565752901	0.00713385658170473	-0.433061714975623	0.894556878321265	-0.110569175046597	-0.0546380715095896	0.0963904327302577	0.993842827422821
40	9.141516	0	0	0	0	0	0	0	0	0	0	0	0	-0.104782104492188	0.822090454101563	8.95078674316406	0.899615271278607	0.436636546125875	0.00639454999075851	-0.433330908337305	0.894424136079552	-0.110588374967319	-0.0540063659385049	0.0967160347905811	0.99384572296333
41	9.141516	0	0	0	0	0	0	0	0	0	0	0	0	-0.0496966552734375	0.637673950195312	9.12203063964844	0.89911519091897	0.437666303136613	0.0063309207446614	-0.434372341140067	0.893944903748804	-0.110377435710564	-0.0539679785728692	0.0964920523166191	0.993869579536714
42	9.141516	0	0	0	0	0	0	0	0	0	0	0	0	-0.1389111328125	0.906514892578125	9.08071655273438	0.898668781059486	0.438587132880828	0.00597903173043648	-0.435330734398921	0.893498870538841	-0.110213066528034	-0.0536802909525954	0.0964421858793711	0.993889999520095
43	9.141516	0	0	0	0	0	0	0	0	0	0	0	0	-0.0796343994140625	0.008382568359375	8.43885131835938	0.897738675415667	0.440475890780153	0.00680149280348533	-0.437143197571186	0.892644255894835	-0.10996389059685	-0.05450775614684	0.0957456111755965	0.993912311253085
44	9.141516	0	0	0	0	0	0	0	0	0	0	0	0	-0.401165771484375	1.05560485839844	9.29866333007813	0.896858940170739	0.442282430987383	0.00550387824275426	-0.438952531244082	0.89150053039868	-0.112015532910782	-0.0544492125767928	0.0980461908427079	0.993691213461709
45	9.141516	0	0	0	0	0	0	0	0	0	0	0	0	-0.243094482421875	1.36216735839844	9.23160278320313	0.896353402890684	0.443314835306926	0.00474699095069368	-0.440040682377174	0.890935183021161	-0.112243919693146	-0.053988656024427	0.0985213502335586	0.993669345692436
46	9.141516	0	0	0	0	0	0	0	0	0	0	0	0	-0.092208251953125	0.626896362304687	9.02503234863281	0.895672420550061	0.444683123413712	0.00527587120959834	-0.441380976921045	0.89034601038309	-0.111654892446042	-0.054348397200089	0.0976775385948011	0.993733037679558
47	9.141516	0	0	0	0	0	0	0	0	0	0	0	0	-0.370629272460938	0.801134033203125	9.15735717773438	0.895099000924645	0.445846945786689	0.0042754504304631	-0.442579000440451	0.889618919091827	-0.112703181689878	-0.0540518909274536	0.0989882807536913	0.993619501298458
48	9.141516	0	0	0	0	0	0	0	0	0	0	0	0	0.0125738525390625	1.14901062011719	8.91246643066406	0.89467322036819	0.446702065216184	0.00413445130677859	-0.443468508379707	0.889235666532662	-0.112230171708372	-0.053809951045227	0.0985758301908189	0.993673635994586
49	9.141516	0	0	0	0	0	0	0	0	0	0	0	0	0.020357666015625	0.533490600585938	9.28070068359375	0.893721249377083	0.448604750236256	0.00401328759672973	-0.445387318130842	0.888312831273906	-0.111939495453365	-0.0537816442671966	0.0982552383316262	0.993706920012291
50	9.141516	0	0	0	0	0	0	0	0	0	0	0	0	-0.177830200195313	1.03285217285156	9.22441772460938	0.892852676860203	0.45034361608262	0.00217367826535715	-0.447249706367507	0.887263299295421	-0.112834116638472	-0.0527427490537852	0.0997720661158976	0.993611461913164
51	9.141516	0	0	0	0	0	0	0	0	0	0	0	0	0.04071533203125	1.09212890625	8.81486938476563	0.89207537157017	0.451882108427856	0.0020227507852534	-0.448786362878599	0.886469646416631	-0.112970644311574	-0.0528425201153598	0.0998705465328448	0.993596267104043
52	9.141516	0	0	0	0	0	0	0	0	0	0	0	0	-0.310155029296875	0.853824462890625	9.74473571777344	0.891046521607818	0.453910079332245	0.00131765367378173	-0.450849632179839	0.885367894285927	-0.113394448413523	-0.0526374913337729	0.100445665154342	0.993549174856378
53	9.141516	0	0	0	0	0	0	0	0	0	0	0	0	0.087418212890625	0.746647338867188	8.82744323730469	0.889608819051141	0.456722951787632	0.000542565043824956	-0.45373321798279	0.883919854015354	-0.113189480856031	-0.0521758178222076	0.100448180610046	0.993573272107657
54	9.141516	0	0	0	0	0	0	0	0	0	0	0	0	-0.299976196289063	1.42623413085938	9.3453662109375	0.888655186397482	0.458576004315744	8.91889281314368e-05	-0.455643406870056	0.882994155932584	-0.11274043801916	-0.0517788128939471	0.100146736615381	0.99362446914344
55	9.141516	0	0	0	0	0	0	0	0	0	0	0	0	-0.1868115234375	0.507744140625	9.23818908691406	0.88723110315883	0.461322754057826	-0.0015120106045972	-0.458633514884487	0.881696053975076	-0.11075814836608	-0.0497621202549436	0.0989615328967958	0.993846238808826
56	9.141516	0	0	0	0	0	0	0	0	0	0	0	0	0.0329315185546875	0.76401123046875	8.593330078125	0.885805915915734	0.464046443733767	-0.00296266547773926	-0.461497601778357	0.88023514246174	-0.110481027910615	-0.0486604858331077	0.0992320111325224	0.993873817486446
57	9.141516	0	0	0	0	0	0	0	0	0	0	0	0	0.153880004882813	0.801134033203125	8.88312744140625	0.884367377316223	0.466780177669814	-0.00325694233345947	-0.464229661206351	0.878762319264237	-0.110759233915622	-0.0488381366870459	0.0994638224475434	0.993841931309532
58	9.141516	0	0	0	0	0	0	0	0	0	0	0	0	-0.264050903320313	0.856219482421875	9.55253540039063	0.88305490383374	0.469241656413962	-0.00512881088226013	-0.466850950902434	0.877342712604843	-0.110995289452615	-0.0475838886250129	0.100409324890959	0.993807698208393
59	9.141516	0	0	0	0	0	0	0	0	0	0	0	0	0.241298217773438	1.0490185546875	8.70649475097656	0.881098517644448	0.472856347236365	-0.00850159297071831	-0.470848373965621	0.875387556126136	-0.109537369483853	-0.0443532517261984	0.100516175105275	0.9939463202827
60	9.141516	0	0	0	0	0	0	0	0	0	0	0	0	0.518521728515625	1.19990478515625	8.35801940917969	0.879687324520236	0.475460817490191	-0.00933927780875114	-0.473552198533684	0.874018734075837	-0.108809777816091	-0.0435720821437774	0.100141217867729	0.994018717198839
61	9.141516	0	0	0	0	0	0	0	0	0	0	0	0	0.17004638671875	-0.0077838134765625	9.54535034179688	0.87793101236919	0.478695634049686	-0.00936095412759659	-0.47684812911305	0.87245056259684	-0.106985408284682	-0.0430464781578353	0.0983895612665592	0.994216523173891
62	9.141516	0	0	0	0	0	0	0	0	0	0	0	0	0.28021728515625	1.01249450683594	8.84420837402344	0.875525486042887	0.483067712474842	-0.0100353601673935	-0.48125359944265	0.870012312013252	-0.107114658048512	-0.0430127459348999	0.0986111662525026	0.994196027741743
63	9.141516	0	0	0	0	0	0	0	0	0	0	0	0	-0.398770751953125	1.59268798828125	9.59025695800781	0.874066701763577	0.485679220689015	-0.011094839298187	-0.483922537681062	0.868441944057554	-0.107831198295559	-0.0427361485450261	0.0996207026297558	0.994107306690325
64	9.141516	0	0	0	0	0	0	0	0	0	0	0	0	0.823287963867188	0.556243286132812	8.70709350585938	0.872924887098836	0.48772289705609	-0.0113365413905722	-0.486119103812949	0.867626263664968	-0.104464747675296	-0.0411139683268434	0.0967007874113896	0.994463975879688
65	9.141516	0	0	0	0	0	0	0	0	0	0	0	0	0.387394409179688	0.29458740234375	9.1585546875	0.871566438353592	0.490130077088251	-0.0120187798506946	-0.48857695408375	0.866242566871948	-0.104481459012325	-0.0407983268514694	0.0969346319566148	0.994454208927468
66	9.141516	0	0	0	0	0	0	0	0	0	0	0	0	0.0880169677734375	1.10889404296875	9.2351953125	0.870526086871407	0.491941315296498	-0.01334445130783	-0.490467281119018	0.865057536484416	-0.105438630127825	-0.0403259002140554	0.0983320948412334	0.994336271537985
67	9.141516	0	0	0	0	0	0	0	0	0	0	0	0	0.285606079101562	1.16158447265625	9.26513305664063	0.869395726483978	0.493920441704603	-0.0139164664238795	-0.492510293098865	0.863956893334741	-0.104938542257142	-0.0398080640457128	0.0980871231391433	0.994381332443052
68	9.141516	0	0	0	0	0	0	0	0	0	0	0	0	0.259859619140625	1.46934448242188	9.19088745117188	0.868795527933458	0.494962107546128	-0.0143820282408408	-0.493645181743968	0.863474653489489	-0.103566197777907	-0.0388428266709559	0.0970774684193143	0.994518576971545
69	9.141516	0	0	0	0	0	0	0	0	0	0	0	0	0.4550537109375	0.558638305664062	8.86037475585938	0.867497540099531	0.497260238850012	-0.0134265699302733	-0.495872451442229	0.862304142484331	-0.102674620793252	-0.0394782195892566	0.0957278471145833	0.994624376066096
70	9.141516	0	0	0	0	0	0	0	0	0	0	0	0	0.173040161132813	1.15380065917969	8.96036682128906	0.867143844932496	0.497895384559159	-0.0127176346218761	-0.496444809222219	0.862000407556362	-0.102459010189348	-0.0400512620525663	0.0951603037371844	0.994655926941897
71	9.141516	0	0	0	0	0	0	0	0	0	0	0	0	-0.0431103515625	0.822689208984375	9.39985290527344	0.867471347168553	0.497350211313922	-0.0116717242759447	-0.495814081527361	0.86239353014623	-0.1022046756323	-0.0407658975217698	0.0944466329093943	0.994694915605445
72	9.141516	0	0	0	0	0	0	0	0	0	0	0	0	-0.0335302734375	0.941841430664063	9.22322021484375	0.868307211161081	0.495869907047051	-0.0124748679678886	-0.494430710069308	0.863223536599912	-0.101898963686102	-0.0397600300053604	0.0946475628058674	0.994716531916949
73	9.141516	0	0	0	0	0	0	0	0	0	0	0	0	0.21315673828125	1.31606323242188	8.95797180175781	0.870078378077074	0.492738775372575	-0.0131192700674608	-0.491373405008178	0.864950482101239	-0.102043325913574	-0.0389331844759326	0.0952321519087432	0.994693442418011
74	9.141516	0	0	0	0	0	0	0	0	0	0	0	0	0.0293389892578125	0.588576049804688	9.38488403320313	0.872234536202416	0.488891552738668	-0.0138550899142554	-0.487593637939449	0.867008138782303	-0.102709938789877	-0.0382015457374565	0.0963428095190368	0.994614852572215
75	9.141516	0	0	0	0	0	0	0	0	0	0	0	0	0.508342895507813	1.40408020019531	8.71846984863281	0.875252989771826	0.483435084428903	-0.0149239082917024	-0.48219944858913	0.869784167012393	-0.104686171937352	-0.0376283892270046	0.0988231853249881	0.994393323774051
76	9.141516	0	0	0	0	0	0	0	0	0	0	0	0	0.149688720703125	0.185015258789062	9.53157897949219	0.877752842824633	0.47886765670139	-0.0153529892397067	-0.477641184720841	0.872095307660667	-0.106342244732367	-0.0375345916688416	0.100675427595648	0.994211050384518
77	9.141516	0	0	0	0	0	0	0	0	0	0	0	0	0.07903564453125	1.23223754882812	9.10885803222656	0.880525785693784	0.473769352245548	-0.0147289375441113	-0.4725745357301	0.875050465606222	-0.104689974791355	-0.0367103378876435	0.0991427431291265	0.99439583043022
78	9.141516	0	0	0	0	0	0	0	0	0	0	0	0	0.0808319091796875	0.534688110351562	9.45314208984375	0.882491169368369	0.470078334635802	-0.0153523709205064	-0.469020976566023	0.877135299558999	-0.103213321856243	-0.0350522399841127	0.0982854291010498	0.994540755775508
79	9.141516	0	0	0	0	0	0	0	0	0	0	0	0	0.49576904296875	0.283211059570313	8.89450378417969	0.883880257320316	0.467445065811808	-0.0158367031786568	-0.466460678066785	0.878531271415618	-0.102942901466461	-0.0342071123722713	0.0983763975405344	0.994561188600329
80	9.141516	0	0	0	0	0	0	0	0	0	0	0	0	0.159867553710937	0.837658081054688	9.15615966796875	0.885383919708605	0.464580473925248	-0.016133752471718	-0.463575569212552	0.879825854886319	-0.104900699248466	-0.0345399240109886	0.100356605766391	0.994351821705157
81	9.141516	0	0	0	0	0	0	0	0	0	0	0	0	0.304766235351562	1.82320861816406	8.96276184082031	0.886878969003218	0.46166977555407	-0.017513214429233	-0.460823814528018	0.881276489719033	-0.10484827434129	-0.0329712951464836	0.101058235727496	0.994334011631911
82	9.141516	0	0	0	0	0	0	0	0	0	0	0	0	0.29458740234375	1.19331848144531	9.15556091308594	0.888610714806162	0.458329936569566	-0.0174547064088965	-0.457574260449233	0.883241247129276	-0.10252168328631	-0.0315720399407507	0.0990886906445885	0.994577617725395
83	9.141516	0	0	0	0	0	0	0	0	0	0	0	0	0.36643798828125	0.70892578125	9.06874145507813	0.890865340854117	0.4539041289998	-0.0181655206864859	-0.453275258590209	0.885566902207521	-0.101551965340676	-0.0300080724948595	0.0987031073042196	0.994664371631776
84	9.141516	0	0	0	0	0	0	0	0	0	0	0	0	0.553848266601562	0.824485473632813	8.93761413574219	0.893546762100438	0.44857261943331	-0.018888860065188	-0.448075172449731	0.88832092231005	-0.100571262398191	-0.0283341450191778	0.0983287551073447	0.994750537645028
85	9.141516	0	0	0	0	0	0	0	0	0	0	0	0	0.429307250976563	0.307760009765625	9.25794799804688	0.896430162674635	0.442715732498088	-0.0203897926867738	-0.442387713740439	0.891111457658389	-0.101061767060788	-0.0265720563494045	0.0996150100568315	0.994671189686693
86	9.141516	0	0	0	0	0	0	0	0	0	0	0	0	0.557440795898438	0.537083129882812	9.12622192382813	0.898072271390183	0.439378986656397	-0.0203052073339619	-0.439092395700203	0.892869206537841	-0.0999122017310347	-0.0257694275903306	0.0986442400816431	0.994789048241074
87	9.141516	0	0	0	0	0	0	0	0	0	0	0	0	0.57719970703125	1.55616394042969	8.69691467285156	0.900419428294818	0.434550060403907	-0.0202755555335473	-0.434218250255953	0.894944047238931	-0.102614148421463	-0.0264454966656318	0.101199789103358	0.994514574247932
88	9.141516	0	0	0	0	0	0	0	0	0	0	0	0	0.223934326171875	0.688568115234375	9.60941711425781	0.90185030027268	0.431556914990539	-0.0206074021149509	-0.431294384088246	0.896434051244305	-0.101936970838182	-0.0255184276948805	0.100819744562128	0.994577392139198
89	9.141516	0	0	0	0	0	0	0	0	0	0	0	0	0.573008422851563	0.839454345703125	8.99689086914062	0.903043199459513	0.429038247148956	-0.0209562017855562	-0.428827831630252	0.897624758685857	-0.1018650254673	-0.0248931864015421	0.100975121081921	0.994577475209081
90	9.141516	0	0	0	0	0	0	0	0	0	0	0	0	0.62031005859375	0.523311767578125	9.02383483886719	0.904469263109617	0.426044380438383	-0.0205313902797965	-0.4258635658808	0.899283269033359	-0.0996485087292628	-0.0239911513945524	0.0988725843373731	0.994810854746375
91	9.141516	0	0	0	0	0	0	0	0	0	0	0	0	0.750239868164063	0.420924682617188	8.78433288574219	0.905788662161773	0.423297090484779	-0.0191434763380933	-0.423007872890984	0.900686224535732	-0.0991396207568678	-0.0247232475907002	0.0978973856581045	0.994889372196667
92	9.141516	0	0	0	0	0	0	0	0	0	0	0	0	-0.0029937744140625	0.802930297851563	9.52319641113281	0.907036762965393	0.420631174740136	-0.0188075906483394	-0.420332800309592	0.901976241820726	-0.0987886439569656	-0.0245895834279116	0.0975103790767598	0.994930690228797
93	9.141516	0	0	0	0	0	0	0	0	0	0	0	0	0.490380249023438	0.931063842773438	9.28608947753906	0.908702793440263	0.417001157180536	-0.0192163499124363	-0.416769340866131	0.903657591434102	-0.0985204240628771	-0.0237181303621097	0.0975345700437147	0.994949475068214
94	9.141516	0	0	0	0	0	0	0	0	0	0	0	0	0.338895263671875	0.780177612304688	9.46092590332031	0.910562139122778	0.412940942307601	-0.0188777372124356	-0.412744694507019	0.905715916169973	-0.0965427177610744	-0.0227685737906177	0.095699829479981	0.995149805147469
95	9.141516	0	0	0	0	0	0	0	0	0	0	0	0	0.373623046875	0.334703979492187	8.90168884277344	0.912709180686482	0.40818859044929	-0.0185479410618432	-0.407983786907056	0.907859853544903	-0.0966422058026729	-0.0226093147085388	0.0957734877116316	0.995146350010872
96	9.141516	0	0	0	0	0	0	0	0	0	0	0	0	0.536484375	0.509540405273438	8.81666564941406	0.914681187224783	0.403709233216817	-0.0194211418961544	-0.403572477867585	0.909634968193651	-0.0984554708848312	-0.0220812328659231	0.0978932053557614	0.99495192823588
97	9.141516	0	0	0	0	0	0	0	0	0	0	0	0	0.126337280273438	0.6179150390625	9.23878784179688	0.916477710215887	0.399583608513396	-0.0200386248245004	-0.399482635754294	0.911198544637909	-0.100652054030502	-0.0219597451771635	0.100250446668183	0.994719868874943
98	9.141516	0	0	0	0	0	0	0	0	0	0	0	0	0.363444213867188	0.901126098632813	9.28668823242188	0.918396171110005	0.395148047943263	-0.0201616739659834	-0.395052282352967	0.912961487432843	-0.102151929360751	-0.0219583036274186	0.101780856112731	0.994564472636523
99	9.141516	0	0	0	0	0	0	0	0	0	0	0	0	0.40236328125	0.4981640625	9.30584838867188	0.92006309437981	0.391233266012808	-0.0205044854897793	-0.391194846309602	0.914617180902659	-0.102186127328904	-0.0212248576215662	0.102038933562752	0.994553951003323
100	9.141516	0	0	0	0	0	0	0	0	0	0	0	0	0.2921923828125	0.963995361328125	9.0962841796875	0.92205369636203	0.386443450618214	-0.0218732827761395	-0.38655970351931	0.91650760837451	-0.102885370226768	-0.0197123474041057	0.103321165624106	0.994452693743597
101	9.141516	0	0	0	0	0	0	0	0	0	0	0	0	0.79275146484375	0.855620727539063	8.6268603515625	0.924151879170985	0.381283769427713	-0.0237905736738743	-0.381629388729312	0.918568004904205	-0.102916616852678	-0.0173871758151995	0.104189766951003	0.994405439737669
102	9.141516	0	0	0	0	0	0	0	0	0	0	0	0	0.495170288085938	1.025068359375	9.17112854003906	0.925689836100366	0.377552471997222	-0.0235044299923108	-0.377900854011653	0.920173280392304	-0.102333174431997	-0.0170079945243477	0.103611123634737	0.994472454712249
103	9.141516	0	0	0	0	0	0	0	0	0	0	0	0	0.688568115234375	0.963396606445313	9.19388122558594	0.927051793074703	0.374138006841381	-0.0244074741367753	-0.374585704515304	0.921425328027335	-0.103251706244938	-0.0161407227146559	0.104862370307355	0.994355751410818
104	9.141516	0	0	0	0	0	0	0	0	0	0	0	0	0.374820556640625	1.01908081054688	9.51421508789062	0.928522832235037	0.370454921566935	-0.0246678151659579	-0.370965433290672	0.922983964037372	-0.102397506968301	-0.0151656625865744	0.104229329925387	0.994437654889242
105	9.141516	0	0	0	0	0	0	0	0	0	0	0	0	0.795146484375	1.09093139648437	9.00168090820313	0.929957713765949	0.366709786435451	-0.0265062849089657	-0.367444574569437	0.924473551005495	-0.101652044302003	-0.0127724401229598	0.104271693300517	0.994466831397382
106	9.141516	0	0	0	0	0	0	0	0	0	0	0	0	0.938248901367188	0.70174072265625	8.81007934570312	0.931152278598152	0.363825353493129	-0.0242187162556283	-0.364381336413752	0.926005840725979	-0.0986885232167401	-0.0134787141374484	0.100718891460205	0.994823617114225
107	9.141516	0	0	0	0	0	0	0	0	0	0	0	0	0.827479248046875	0.32572265625	9.35315002441406	0.932261886373456	0.360923534061199	-0.0249394822757025	-0.36156375944052	0.927071797467901	-0.0990430724426114	-0.0126262850690123	0.101351294517675	0.994770572556782
108	9.141516	0	0	0	0	0	0	0	0	0	0	0	0	0.818497924804688	0.380209350585938	8.93581787109375	0.933146843868874	0.358606242301746	-0.0252691661868955	-0.35930289827825	0.928040027410961	-0.0981994644176524	-0.0117641432501198	0.100713804938972	0.994845884762211
109	9.141516	0	0	0	0	0	0	0	0	0	0	0	0	0.879570922851563	0.643661499023438	9.41901306152344	0.934232344290598	0.355670434969971	-0.0266170728962686	-0.356503478870268	0.928959553044039	-0.0996966316462919	-0.0107329602016193	0.102628896985655	0.994661808389575
110	9.141516	0	0	0	0	0	0	0	0	0	0	0	0	0.456251220703125	0.725092163085937	9.4986474609375	0.935173632266873	0.353042470569417	-0.0284831790189674	-0.354069373371649	0.929733200931401	-0.101148672389005	-0.00922801999302399	0.104676592703876	0.994463500882217
111	9.141516	0	0	0	0	0	0	0	0	0	0	0	0	0.798140258789063	0.85502197265625	9.55253540039063	0.936597208720203	0.349204136649928	-0.0290196410057454	-0.3503007817057	0.931047357578037	-0.102177200408555	-0.00866204097771346	0.105864483626628	0.994342838337244
112	9.141516	0	0	0	0	0	0	0	0	0	0	0	0	0.463436279296875	0.254470825195312	9.14358581542969	0.939140674860279	0.342897581478488	-0.0208816052827309	-0.343229265200325	0.934021086089588	-0.0989862730385995	-0.0144382939790347	0.100129213300769	0.994869678053736
113	9.141516	0	0	0	0	0	0	0	0	0	0	0	0	0.465232543945313	1.22684875488281	9.627978515625	0.940844874331754	0.337749547528584	-0.0271323715864126	-0.338746583319958	0.935715841496987	-0.0984206089223282	-0.00785332622021508	0.101789523605447	0.994774958546633
114	9.141516	0	0	0	0	0	0	0	0	0	0	0	0	1.11009155273438	0.70892578125	9.06874145507813	0.941906583349563	0.33450025329665	-0.0303573514528086	-0.335851700923281	0.936922848925393	-0.096846322328026	-0.00395262314057889	0.101415756694913	0.994836278522404
115	9.141516	0	0	0	0	0	0	0	0	0	0	0	0	0.8286767578125	0.358055419921875	9.09508666992187	0.942854073998493	0.331557955094139	-0.033098603569302	-0.333204465219463	0.937891695344922	-0.0966123809914604	-0.000989698063142305	0.102119979518313	0.994771597041714
116	9.141516	0	0	0	0	0	0	0	0	0	0	0	0	1.25379272460937	0.74724609375	9.39147033691406	0.943414539655457	0.328770713191623	-0.0433454093781137	-0.331484770854612	0.938624630441422	-0.0954025671571344	0.00931949881430134	0.1043725120718	0.994494608163198
117	9.141516	0	0	0	0	0	0	0	0	0	0	0	0	1.86871398925781	0.737666015625	9.04539001464844	0.943914772572806	0.326702912813976	-0.0478550820466733	-0.329887462259758	0.939289595834323	-0.0943891805304647	0.014112560456811	0.104882133446357	0.99438452005303
118	9.141516	0	0	0	0	0	0	0	0	0	0	0	0	2.00343383789063	0.5029541015625	9.34416870117188	0.945568834495985	0.321728180987817	-0.0488933204862996	-0.325021127174859	0.941140056417758	-0.0928259720981282	0.016150731249371	0.103664708383563	0.994481162273002
119	9.141516	0	0	0	0	0	0	0	0	0	0	0	0	1.82141235351563	0.556243286132812	9.01724853515625	0.946479464144322	0.317769618691212	-0.0565605285505671	-0.321781572147027	0.942659765986032	-0.0885956286604888	0.0251643354703721	0.102054078938577	0.994460517663891
120	9.141516	0	0	0	0	0	0	0	0	0	0	0	0	2.49800537109375	0.383203125	9.01185974121094	0.947590707506858	0.314363628803872	-0.0569856116218252	-0.318319444373127	0.94422239971809	-0.0843610763598721	0.0272870368606729	0.0980794002626135	0.994804427444656
121	9.141516	0	0	0	0	0	0	0	0	0	0	0	0	2.28125610351562	0.369431762695313	9.10945678710937	0.948884638804654	0.310544160235211	-0.0563938541365074	-0.314368566304608	0.945819328535773	-0.0812293191386326	0.0281131065545512	0.0948057082244943	0.995098754359538
122	9.141516	0	0	0	0	0	0	0	0	0	0	0	0	2.20760925292969	0.273630981445313	8.49932556152344	0.950170944871927	0.306700371185794	-0.0557678925160998	-0.310358425854984	0.947490556702092	-0.0770668051834109	0.0292031337703264	0.0905346744339289	0.995465041929216
123	9.141516	0	0	0	0	0	0	0	0	0	0	0	0	2.89438110351563	-0.83107177734375	9.71180419921875	0.951567269286178	0.302186667911711	-0.0565946089275637	-0.306032261924872	0.948620838757268	-0.0803912864470112	0.0293936504094469	0.0938174931016413	0.995155410628778
124	9.141516	0	0	0	0	0	0	0	0	0	0	0	0	2.21359680175781	0.191002807617188	8.72984619140625	0.953128518170669	0.296824038691677	-0.0586644517961869	-0.300923414961634	0.950140241071109	-0.0817228280541251	0.0314821564956026	0.0955458651753053	0.994927063392232
125	9.141516	0	0	0	0	0	0	0	0	0	0	0	0	2.43693237304688	0.746048583984375	7.54670654296875	0.955062957634773	0.291373055769929	-0.0543736087197887	-0.295009717254694	0.952208296437087	-0.0791746608561397	0.0287056384570055	0.0916575287015371	0.995376754677897
126	9.141516	0	0	0	0	0	0	0	0	0	0	0	0	2.25012084960938	0.0101788330078125	9.27950317382813	0.955552258283717	0.289906148939659	-0.0536125591243835	-0.293547318959179	0.952448541539198	-0.0816807642700084	0.0273834479342368	0.0937880617500498	0.99521552753783
127	9.141516	0	0	0	0	0	0	0	0	0	0	0	0	1.76812316894531	0.003592529296875	9.417216796875	0.956863547994964	0.283528236532344	-0.0634341359785708	-0.288581726641993	0.952784010898638	-0.094462773748342	0.033656166846731	0.108693917331023	0.993505357191607
128	9.141516	0	0	0	0	0	0	0	0	0	0	0	0	3.23028259277344	1.13044921875	7.59340942382813	0.95777468177208	0.280643635418317	-0.0625044706847619	-0.28590534055185	0.952624965923837	-0.103748785740069	0.0304268828558297	0.117238322223574	0.992637587743825
129	9.141516	0	0	0	0	0	0	0	0	0	0	0	0	1.89386169433594	1.48910339355469	10.8656048583984	0.958958509587699	0.276512574890537	-0.0627644231770233	-0.281897193293216	0.953570249943951	-0.106008258335089	0.0305376702246052	0.119350636149275	0.992382424445343
130	9.141516	0	0	0	0	0	0	0	0	0	0	0	0	2.24293579101563	1.51904113769531	7.84847900390625	0.960373679323243	0.272384148443147	-0.0590700578977064	-0.277283547831111	0.955191607898858	-0.103551080640361	0.0282175506613965	0.115826887536946	0.992868521989783
131	9.141516	0	0	0	0	0	0	0	0	0	0	0	0	1.71363647460938	1.18733093261719	9.07353149414063	0.960843052490665	0.271402449512313	-0.0558689437804125	-0.275984738722333	0.955361717830381	-0.105434397122332	0.0247598964615691	0.116724883820464	0.992855603310125
132	9.141516	0	0	0	0	0	0	0	0	0	0	0	0	1.38132751464844	1.41845031738281	9.12562316894531	0.962657235888393	0.263815252282703	-0.0607664286817414	-0.26935889018608	0.955871963060156	-0.117279915216751	0.0271446950515699	0.129268336798068	0.991238045391731
133	9.141516	0	0	0	0	0	0	0	0	0	0	0	0	0.775387573242188	2.11839477539062	10.4069586181641	0.963777122087158	0.253106464053477	-0.0840879111153471	-0.262467499667116	0.956081709949618	-0.130455262516723	0.0473758436324768	0.147800141252168	0.987881899665112
134	9.141516	0	0	0	0	0	0	0	0	0	0	0	0	2.68421813964844	2.22018310546875	8.45022766113281	0.964578401206111	0.252088710430649	-0.0777160858514956	-0.260616300583055	0.956263745806232	-0.132811115223983	0.0408368925980797	0.148360811975562	0.98808978219233
135	9.141516	0	0	0	0	0	0	0	0	0	0	0	0	1.94774963378906	2.09504333496094	8.57357116699219	0.965333398155687	0.249691351291529	-0.0760635227648947	-0.257968685060823	0.957069023199836	-0.132178070644497	0.0397943203634047	0.147217913045669	0.988303241998777
136	9.141516	0	0	0	0	0	0	0	0	0	0	0	0	1.79985717773438	2.02379150390625	8.23228088378906	0.965577330911734	0.249639425251989	-0.0730792404806569	-0.257578877423161	0.956792751460179	-0.134910165142162	0.0362427914873676	0.149089865896775	0.988159234107583
137	9.141516	0	0	0	0	0	0	0	0	0	0	0	0	1.58670043945312	2.0549267578125	9.32321228027344	0.965983375660617	0.249027602422505	-0.0697235338965088	-0.256548828519517	0.95674304396404	-0.1372058541451	0.0325394611599897	0.150426065088872	0.988085614918716
138	9.141516	0	0	0	0	0	0	0	0	0	0	0	0	1.32264953613281	2.88539978027344	8.12630126953125	0.967040467669943	0.245652859778655	-0.0669881061925714	-0.252903158329497	0.957196814288895	-0.1407631031988	0.0295419429906724	0.153065120774653	0.987774439032807
139	9.141516	0	0	0	0	0	0	0	0	0	0	0	0	1.01488952636719	1.9303857421875	9.78964233398438	0.967754586316745	0.243223260045555	-0.0655248535726647	-0.250343658018588	0.957509070522734	-0.143193689653427	0.0279126056250425	0.154980081428234	0.98752319507327
140	9.141516	0	0	0	0	0	0	0	0	0	0	0	0	1.25558898925781	2.45309875488281	8.55680603027344	0.967760807629893	0.241213280549065	-0.0724925686004775	-0.249543942896517	0.957281596707879	-0.146081364889821	0.0341590365671619	0.15946190106471	0.986612924266469
141	9.141516	0	0	0	0	0	0	0	0	0	0	0	0	1.76932067871094	3.01832336425781	8.77714782714844	0.968785689131608	0.237641507381237	-0.0705748007674794	-0.245868551237464	0.95745668617769	-0.151080606320031	0.0316692918485181	0.163716853326745	0.98599890866603
142	9.141516	0	0	0	0	0	0	0	0	0	0	0	0	1.15739318847656	2.87043090820312	7.66645751953125	0.969759542952636	0.235122516526223	-0.0654509822284672	-0.242624646200431	0.957799839495463	-0.154119267188054	0.0264520303268136	0.165338651515135	0.985882051975158
143	9.141516	0	0	0	0	0	0	0	0	0	0	0	0	0.928070068359375	3.49433349609375	9.87466552734375	0.971297970292147	0.229544582110178	-0.0623661585334519	-0.23661241463595	0.959261235652119	-0.154377611768405	0.0243888939171293	0.164703268331369	0.986041589008529
144	9.141516	0	0	0	0	0	0	0	0	0	0	0	0	1.69387756347656	2.00103881835938	9.17412231445313	0.972283033270791	0.225367725414537	-0.0622502333748907	-0.232406117671421	0.960674854543303	-0.151957955754549	0.0255558150456642	0.16221347721346	0.98642469967437
145	9.141516	0	0	0	0	0	0	0	0	0	0	0	0	0.97716796875	2.65607666015625	9.52080139160156	0.972802639405871	0.222570592481146	-0.0641666278338074	-0.229999866603497	0.960994147216407	-0.15359137468681	0.0274788305308654	0.164172410527477	0.98604884944624
146	9.141516	0	0	0	0	0	0	0	0	0	0	0	0	0.992136840820313	2.24293579101563	8.46220275878906	0.973772313359466	0.218961363883613	-0.0618336709308335	-0.226064988851821	0.961845222684779	-0.154105121309756	0.0257313534424511	0.164041728607989	0.986117745872836
147	9.141516	0	0	0	0	0	0	0	0	0	0	0	0	1.22265747070313	2.51896179199219	7.79818359375	0.974293356437965	0.217608244876485	-0.0583018641436187	-0.2241532861796	0.962267556413271	-0.154260993674092	0.0225335282574969	0.163364015732375	0.986308490518084
148	9.141516	0	0	0	0	0	0	0	0	0	0	0	0	1.06578369140625	1.98487243652344	8.6651806640625	0.974139260361758	0.218916404634168	-0.0559312900253096	-0.225064756824104	0.962002080985642	-0.154589299160712	0.0199638838293805	0.163179667732663	0.986394363011622
149	9.141516	0	0	0	0	0	0	0	0	0	0	0	0	0.777782592773438	2.43932739257813	9.58546691894531	0.973980361561206	0.219714538681159	-0.0555677675026484	-0.225756248339218	0.962138612259195	-0.152720028600547	0.019909084079997	0.161291079393983	0.986706043398448
150	9.141516	0	0	0	0	0	0	0	0	0	0	0	0	0.6274951171875	2.34532287597656	8.93102783203125	0.973902171405629	0.220561111237167	-0.0535477052844183	-0.226268596528919	0.962002338439071	-0.152820231195323	0.0178068176896954	0.160948119117885	0.986802219391597
151	9.141516	0	0	0	0	0	0	0	0	0	0	0	0	0.656834106445312	2.27586730957031	9.55014038085938	0.973597047351184	0.221851688505747	-0.0537644649950657	-0.227536432288194	0.962064190851366	-0.150531274700863	0.0183292490467256	0.158790179131631	0.987142197274905
152	9.141516	0	0	0	0	0	0	0	0	0	0	0	0	0.758622436523438	2.83270935058594	8.71248229980469	0.973376305710655	0.223060917810648	-0.0527484068626604	-0.228570231042785	0.961816376961725	-0.150548684780933	0.0171527537767262	0.158597238165399	0.987194357299606
153	9.141516	0	0	0	0	0	0	0	0	0	0	0	0	0.48139892578125	2.37765563964844	8.87713989257812	0.972708429704645	0.225570539498885	-0.0543713388809514	-0.231334000694765	0.960933018793733	-0.151961552751074	0.0179691653695816	0.160392222698438	0.986889783103349
154	9.141516	0	0	0	0	0	0	0	0	0	0	0	0	0.39996826171875	1.93337951660156	9.12382690429687	0.971774116795629	0.229592382709794	-0.0542439280262342	-0.235297187260201	0.959873601427953	-0.152570976758918	0.0170381804636995	0.161027969879062	0.98680276313107
155	9.141516	0	0	0	0	0	0	0	0	0	0	0	0	0.341889038085938	2.37705688476563	9.20944885253906	0.970386568963678	0.235062918346174	-0.055635700709895	-0.240891829215267	0.958780126901317	-0.150704329322079	0.0179174047290259	0.159643642772505	0.987012094115417
156	9.141516	0	0	0	0	0	0	0	0	0	0	0	0	0.374820556640625	1.32504455566406	9.13400573730469	0.968802820015233	0.241516704638651	-0.0555947597442402	-0.247218274908925	0.957558973323377	-0.148202352069516	0.0174419173713279	0.157322897215784	0.987393176769034
157	9.141516	0	0	0	0	0	0	0	0	0	0	0	0	0.796942749023438	2.60158996582031	9.1346044921875	0.966809551113216	0.249481489485745	-0.0551205794620835	-0.254894176011	0.956635813398282	-0.14098538775164	0.0175570758366903	0.150355934128923	0.988476020022886
158	9.141516	0	0	0	0	0	0	0	0	0	0	0	0	0.39038818359375	0.813109130859375	9.57349182128906	0.96482298961328	0.256130397186092	-0.0592774691682094	-0.262109648330657	0.954624964095767	-0.141384971539182	0.0203747629599149	0.151948667524433	0.988178360151586
159	9.141516	0	0	0	0	0	0	0	0	0	0	0	0	0.339494018554688	2.58003479003906	8.73283996582031	0.963050410577465	0.262749591730993	-0.0591317066536475	-0.268570382668919	0.953315075895465	-0.138059101921947	0.0200961747516111	0.148838899873724	0.98865723364811
160	9.141516	0	0	0	0	0	0	0	0	0	0	0	0	0.501756591796875	2.35969299316406	9.206455078125	0.962832242366616	0.26295710933689	-0.0617060103106704	-0.269186650151875	0.952972273958018	-0.139220660992886	0.022195054387976	0.15065657541731	0.988336974844229
161	9.141516	0	0	0	0	0	0	0	0	0	0	0	0	0.589773559570313	0.429307250976563	9.04419250488281	0.96169326358651	0.267206778800246	-0.0612095101722311	-0.273251129182151	0.952258493225876	-0.136152790936741	0.0219063272368329	0.147662789633615	0.988795132160658
162	9.141516	0	0	0	0	0	0	0	0	0	0	0	0	0.792152709960938	1.6142431640625	9.3070458984375	0.960786245851352	0.270303506733802	-0.0618530842422208	-0.276420446679346	0.951293430254777	-0.136501085020196	0.0219437107266922	0.14824582220592	0.988707059627893
163	9.141516	0	0	0	0	0	0	0	0	0	0	0	0	0.777183837890625	1.10470275878906	9.27171936035156	0.958603660257062	0.278022068727743	-0.0615040798818128	-0.283970276692089	0.949342266781952	-0.134573929335234	0.0209739003807354	0.146468391817662	0.98899297555704
164	9.141516	0	0	0	0	0	0	0	0	0	0	0	0	0.444276123046875	1.62502075195313	8.6460205078125	0.957667491975315	0.281158093376137	-0.0618312327453304	-0.287171930494622	0.948047059937259	-0.136890666154826	0.0201309997194267	0.148851935403662	0.988654562613697
165	9.141516	0	0	0	0	0	0	0	0	0	0	0	0	0.244890747070313	0.504750366210937	8.91965148925781	0.955258107770007	0.289703223602994	-0.0596153484741911	-0.295271887940798	0.945799694510151	-0.135194119903134	0.0172180060268987	0.146748015654522	0.989024044283008
166	9.141516	0	0	0	0	0	0	0	0	0	0	0	0	0.0317340087890625	1.90883056640625	8.80289428710937	0.953328196104387	0.295614820857713	-0.0614591588098911	-0.301463218842231	0.943294796779227	-0.138977890524067	0.0168901805093435	0.151019217513868	0.988386522441429
167	9.141516	0	0	0	0	0	0	0	0	0	0	0	0	0.09580078125	0.0556842041015625	8.82265319824219	0.952003467884382	0.300280260868393	-0.0593393804224651	-0.305782609090361	0.941659949186335	-0.140618405894395	0.0136525863485007	0.152014160627224	0.988284018819893
168	9.141516	0	0	0	0	0	0	0	0	0	0	0	0	0.450263671875	1.89026916503906	8.842412109375	0.949607153573828	0.307235217596755	-0.0620707253839209	-0.313115335513287	0.938876193856356	-0.143074383717718	0.014319236984324	0.155299754275651	0.987763608245469
169	9.141516	0	0	0	0	0	0	0	0	0	0	0	0	-0.070653076171875	0.875379638671875	8.80349304199219	0.947457927193639	0.313707243383468	-0.0625399204243088	-0.319673571029457	0.935602420721703	-0.14985632560878	0.0115014861304201	0.161974923332087	0.986727844964535
170	9.141516	0	0	0	0	0	0	0	0	0	0	0	0	0.0047900390625	3.32009582519531	10.0734521484375	0.947021114657858	0.315787072337015	-0.0585622176578446	-0.321130342948373	0.933938294831502	-0.156954019652528	0.00512944734332049	0.16744487568165	0.985868095831237
171	9.141516	0	0	0	0	0	0	0	0	0	0	0	0	-0.449664916992188	1.65316223144531	8.33826049804687	0.94623115439078	0.318148500371098	-0.0585502704683291	-0.323475302601415	0.932355654809671	-0.161482697374529	0.00321419775619603	0.171739525607975	0.985137149983053
172	9.141516	0	0	0	0	0	0	0	0	0	0	0	0	-0.383801879882813	2.33155151367187	8.97294067382813	0.944931103175714	0.322677506416782	-0.0546300018650569	-0.327267255305097	0.931073689995865	-0.161238727986027	-0.00116355326336545	0.170238099878175	0.985402270899389
173	9.141516	0	0	0	0	0	0	0	0	0	0	0	0	-0.473016357421875	2.80636413574219	9.82377136230469	0.94377664425791	0.326003657387079	-0.0548385003763497	-0.330582901439506	0.930312620525877	-0.158850160107297	-0.000768784180670532	0.168047741610901	0.985778558049606
174	9.141516	0	0	0	0	0	0	0	0	0	0	0	0	-0.761017456054688	2.7638525390625	8.880732421875	0.942144236917209	0.330784760881353	-0.0542741081212498	-0.335207252868121	0.929432126169718	-0.154246622226375	-0.00057833234280933	0.163515640879716	0.986540572262184
175	9.141516	0	0	0	0	0	0	0	0	0	0	0	0	-0.602347412109375	1.44000549316406	9.10885803222656	0.940527475044956	0.335382821280872	-0.0540965052036064	-0.339711137935182	0.929493081094674	-0.143662642882252	0.00210034481563814	0.153495848109363	0.988147060494967
176	9.141516	0	0	0	0	0	0	0	0	0	0	0	0	-0.346080322265625	1.37713623046875	8.61428649902344	0.939608051484681	0.338074817591024	-0.053311605640406	-0.342232336376123	0.929771491106737	-0.135653979903634	0.00370641655815704	0.145706527087674	0.989320913778915
177	9.141516	0	0	0	0	0	0	0	0	0	0	0	0	-0.2634521484375	1.04602478027344	9.13280822753906	0.938343565841711	0.341266101713601	-0.0552159421242173	-0.345648132366733	0.929022283844764	-0.132079387912151	0.00622262282738249	0.143021131099783	0.989700073266688
178	9.141516	0	0	0	0	0	0	0	0	0	0	0	0	-0.200582885742188	0.61552001953125	8.86875732421875	0.938145422421686	0.341626476713867	-0.0563428504542216	-0.34617817435689	0.928583503304658	-0.133766023299566	0.00662102621709576	0.144996647542346	0.98940999298234
179	9.141516	0	0	0	0	0	0	0	0	0	0	0	0	-0.34727783203125	-0.044307861328125	9.81239501953125	0.937155385452832	0.344286938313885	-0.056624090484569	-0.348826492817214	0.928103296915044	-0.130170458108847	0.0077370165823337	0.141741928736265	0.989873408175272
180	9.141516	0	0	0	0	0	0	0	0	0	0	0	0	0.1149609375	0.908311157226563	8.87414611816406	0.93736320037204	0.343293240381129	-0.0591606431414544	-0.348232826042719	0.92789796374037	-0.133188842448521	0.00917221099776188	0.145447997563046	0.989323380169656
181	9.141516	0	0	0	0	0	0	0	0	0	0	0	0	-0.0077838134765625	-0.0305364990234375	9.27411437988281	0.93673281705942	0.345200516486706	-0.0580364787115496	-0.349940679461032	0.927543532907097	-0.131165984235902	0.00855279499787797	0.143176806709513	0.989660169814968
182	9.141516	0	0	0	0	0	0	0	0	0	0	0	0	0.109572143554688	0.9436376953125	8.80109802246094	0.936741660833739	0.344814765561308	-0.0601484688861549	-0.349867406841182	0.927499586849201	-0.131671234614053	0.010385494146908	0.144385919831064	0.989466951275212
183	9.141516	0	0	0	0	0	0	0	0	0	0	0	0	-0.0401165771484375	-0.123343505859375	9.11783935546875	0.936678233807141	0.345032752648595	-0.059885606882374	-0.350059626846078	0.927221341383695	-0.1331121396981	0.00959916477207157	0.145646777109401	0.989290085037409
184	9.141516	0	0	0	0	0	0	0	0	0	0	0	0	0.128133544921875	0.8382568359375	8.92144775390625	0.93641410731157	0.345830799305639	-0.0594110922261184	-0.350775952686961	0.927021199512524	-0.132619480736868	0.00921144095307562	0.145026735142128	0.989384857095349
185	9.141516	0	0	0	0	0	0	0	0	0	0	0	0	0.0580792236328125	0.865799560546875	9.46272216796875	0.936360245774736	0.345893556060599	-0.0598927208300877	-0.350906520717884	0.926993596653016	-0.132466922218248	0.00970071390914556	0.145053506128115	0.989376256289585
186	9.141516	0	0	0	0	0	0	0	0	0	0	0	0	-0.113164672851563	0.380209350585938	9.15136962890625	0.93590906129878	0.347350015582499	-0.0584995354996559	-0.352107854266457	0.92713926699916	-0.128190633636516	0.00971019787176828	0.140572921514415	0.990022709736597
187	9.141516	0	0	0	0	0	0	0	0	0	0	0	0	0.09819580078125	0.300574951171875	9.28249694824219	0.935784660314996	0.347654788877496	-0.0586789339515711	-0.352422641759415	0.927187404470667	-0.126971644733237	0.0102640681245012	0.139497902355167	0.990169169457444
188	9.141516	0	0	0	0	0	0	0	0	0	0	0	0	-0.0526904296875	0.21315673828125	8.9525830078125	0.935500837977457	0.348856760676622	-0.056010201514458	-0.353201355884736	0.927534249554799	-0.122184361126951	0.00932653980103505	0.134086451340287	0.990925748591846
189	9.141516	0	0	0	0	0	0	0	0	0	0	0	0	-0.0257464599609375	0.141904907226563	9.47050598144531	0.935493315718622	0.349112896819935	-0.0545201019787472	-0.353232610606276	0.927878640507877	-0.119448529892708	0.00888701581266484	0.131001579239518	0.991342325933226
190	9.141516	0	0	0	0	0	0	0	0	0	0	0	0	-0.0975970458984375	-0.43828857421875	9.31303344726563	0.934759445317228	0.351427779716691	-0.0521851993732372	-0.355162080777429	0.928114942045711	-0.111635795018151	0.00920194371179952	0.122886817823898	0.992378029904452
191	9.141516	0	0	0	0	0	0	0	0	0	0	0	0	0.0047900390625	-0.41433837890625	8.48974548339844	0.934638286372877	0.352103106368331	-0.0497461167503889	-0.355478272054918	0.928789338119583	-0.104812038870714	0.00929901837943648	0.115645008025242	0.99324707921847
192	9.141516	0	0	0	0	0	0	0	0	0	0	0	0	-0.0532891845703125	-1.01908081054688	9.19088745117188	0.934221293653264	0.353549007299939	-0.0472617596165194	-0.356593134661989	0.92887265065257	-0.100184505696267	0.00848002339375046	0.110447717526876	0.9938457581015
193	9.141516	0	0	0	0	0	0	0	0	0	0	0	0	-0.0772393798828125	-0.986748046875	8.89630004882813	0.934105479984414	0.354285915396334	-0.0439140343725087	-0.356917442029549	0.929403436303979	-0.0939105540471302	0.00754266784181623	0.10339604798123	0.994611665638249
194	9.141516	0	0	0	0	0	0	0	0	0	0	0	0	-0.144898681640625	-1.55436767578125	9.08550659179688	0.934012980076144	0.354657187690314	-0.0428722785594356	-0.357153226813271	0.929670499616103	-0.0903013550308848	0.00783106800815307	0.0996546103456505	0.99499127283143
195	9.141516	0	0	0	0	0	0	0	0	0	0	0	0	-0.255668334960937	-2.10701843261719	8.88133117675781	0.933350769700752	0.35679847249955	-0.039385158638786	-0.358908995151307	0.929518753379508	-0.0847302798017667	0.0063776091518487	0.0932187595808606	0.995625225154382
196	9.141516	0	0	0	0	0	0	0	0	0	0	0	0	-0.217348022460938	-2.02019897460938	9.28070068359375	0.932672220451201	0.358775678873464	-0.0374505199898848	-0.360659436730385	0.929442936957589	-0.0778498403143769	0.00687749198100607	0.0861152668725932	0.996261442049984
197	9.141516	0	0	0	0	0	0	0	0	0	0	0	0	-0.0335302734375	-1.96571228027344	8.49034423828125	0.932160270926431	0.360264130136459	-0.0358745849228309	-0.361982456317484	0.929265089720149	-0.0737230923508115	0.00677721364025264	0.0817077081090031	0.996633292545884
198	9.141516	0	0	0	0	0	0	0	0	0	0	0	0	-0.247285766601563	-2.60039245605469	8.86217102050781	0.931648380894299	0.361902676329079	-0.032523026348752	-0.363313735109728	0.929233289168946	-0.0672950531679842	0.00586721890257792	0.0745113895059853	0.997202902410657
199	9.141516	0	0	0	0	0	0	0	0	0	0	0	0	-0.108374633789063	-2.90336242675781	8.43825256347656	0.931066939225029	0.363690834068702	-0.0290401772816253	-0.364814539682521	0.929111153403843	-0.0605212050178316	0.00497054507740493	0.0669435720214578	0.997744382017078
200	9.141516	0	0	0	0	0	0	0	0	0	0	0	0	-0.17962646484375	-3.24585021972656	8.39993225097656	0.930473775591054	0.365460742679482	-0.0256319819266917	-0.366337649419115	0.928887308913509	-0.0544526763116032	0.00390890718828044	0.0600567473276724	0.998187310851532
201	9.141516	0	0	0	0	0	0	0	0	0	0	0	0	-0.264649658203125	-3.85897521972656	8.54962097167969	0.930036362485738	0.366770920361685	-0.0226154025243942	-0.367453442580784	0.928776189756031	-0.048505225262857	0.00321434127439686	0.0534217307779576	0.998566866409486
202	9.141516	0	0	0	0	0	0	0	0	0	0	0	0	-0.23231689453125	-3.85658020019531	8.2915576171875	0.929556636252421	0.368119174033891	-0.0203158486825287	-0.368667256147109	0.928560083027795	-0.043134979452612	0.00298567313136458	0.047586194594875	0.9988626731638
203	9.141516	0	0	0	0	0	0	0	0	0	0	0	0	-0.2826123046875	-4.00507141113281	8.21192321777344	0.929100222142646	0.36941399513913	-0.0174950681574527	-0.369820855963884	0.928336827443706	-0.0377262416084213	0.00230471443505006	0.041521500540127	0.999134952488537
204	9.141516	0	0	0	0	0	0	0	0	0	0	0	0	-0.236508178710938	-3.87813537597656	8.19276306152344	0.928490994485925	0.37107934150919	-0.014303687064654	-0.371353096363172	0.927917995765226	-0.0326354248713106	0.00116231666196814	0.0356134165751029	0.999364965155286
205	9.141516	0	0	0	0	0	0	0	0	0	0	0	0	-0.298778686523438	-4.32780029296875	7.89099060058594	0.928147735666771	0.372041408868748	-0.0112681348769165	-0.372211942938583	0.927740398185788	-0.027495874380737	0.000224300094834155	0.0297143679224901	0.999558405511371
206	9.141516	0	0	0	0	0	0	0	0	0	0	0	0	-0.305963745117187	-4.291875	7.9323046875	0.927966672607905	0.372570713091836	-0.00830170315382282	-0.372662400074847	0.927688501369598	-0.0227327956284589	-0.000768179320280731	0.024189009340429	0.99970710797096
207	9.141516	0	0	0	0	0	0	0	0	0	0	0	0	-0.38559814453125	-4.80201416015625	7.50658996582031	0.927739871950065	0.373137130372494	-0.00821047693239304	-0.373227437075468	0.927521281747237	-0.0201383246582271	0.000101035414608812	0.0217475020023568	0.999763490005763
208	9.141516	0	0	0	0	0	0	0	0	0	0	0	0	-0.347876586914063	-4.75471252441406	7.71854919433594	0.927496063448266	0.373782200455723	-0.00615783325918675	-0.37383216984991	0.927335358476721	-0.0172812529684599	-0.000749048248335125	0.018330290268556	0.999831705531182
209	9.141516	0	0	0	0	0	0	0	0	0	0	0	0	-0.265248413085937	-4.97984436035156	7.91553955078125	0.927229639634484	0.374473180157407	-0.00387720596619144	-0.374490750782051	0.927135917582426	-0.013253977036688	-0.00136856201954085	0.0137414581246676	0.999904645137029
210	9.141516	0	0	0	0	0	0	0	0	0	0	0	0	-0.290994873046875	-4.74812622070313	7.35091369628906	0.92713104793263	0.37471458380459	-0.00412318366046101	-0.374735079948909	0.92703191371187	-0.0136180327285204	-0.00128055262676214	0.0141708025130209	0.999898769146711
211	9.141516	0	0	0	0	0	0	0	0	0	0	0	0	-0.3688330078125	-4.83913696289062	7.65208740234375	0.927035885517545	0.374929756655066	-0.00566961526682145	-0.374969556535235	0.926861199696442	-0.0180595727812393	-0.00151612482014111	0.0188678051676502	0.999820837597259
212	9.141516	0	0	0	0	0	0	0	0	0	0	0	0	-0.382604370117188	-4.04818176269531	8.06283325195313	0.927258941273593	0.37433310131975	-0.00809846186095255	-0.374419520728241	0.926984974340397	-0.0225583652946712	-0.000937190381086291	0.0239496681286135	0.999712726272262
213	9.141516	0	0	0	0	0	0	0	0	0	0	0	0	-0.38559814453125	-3.93681335449219	8.01613037109375	0.927901076364158	0.372659199955563	-0.011167505125036	-0.372826483886765	0.92747879829503	-0.0279909204178663	-7.3449775619845e-05	0.0301363468537162	0.999545794450381
214	9.141516	0	0	0	0	0	0	0	0	0	0	0	0	-0.325123901367187	-3.68054626464844	8.48735046386719	0.928027928064501	0.372254762927683	-0.0138042098637718	-0.372510014605282	0.927456001868842	-0.0325830265051567	0.000673610482068722	0.0353801649956193	0.999373698960405
215	9.141516	0	0	0	0	0	0	0	0	0	0	0	0	-0.276026000976562	-3.4440380859375	8.49094299316406	0.928120005692666	0.371973028034695	-0.0151433631583656	-0.372279818826529	0.927457320905693	-0.0350806840429473	0.000995754755376217	0.0381966531666635	0.999269745443808
216	9.141516	0	0	0	0	0	0	0	0	0	0	0	0	-0.2826123046875	-2.90036865234375	8.6268603515625	0.928439068861315	0.37113298847574	-0.0161616916503777	-0.371484118787203	0.927636624461031	-0.0385984772684116	0.000667008868897869	0.0418401460753998	0.999124095033024
217	9.141516	0	0	0	0	0	0	0	0	0	0	0	0	-0.324525146484375	-2.90336242675781	8.7753515625	0.928706416292822	0.370340877247366	-0.0187623819435591	-0.370809630513442	0.927794285299994	-0.0412065781539602	0.0021471504439502	0.0452260854410976	0.998974469614037
218	9.141516	0	0	0	0	0	0	0	0	0	0	0	0	-0.37122802734375	-2.87342468261719	8.22749084472656	0.928772466730503	0.37007471262166	-0.0206497486990286	-0.370641852702163	0.927686557874743	-0.0449696271278702	0.00251437245553055	0.049420212631145	0.998774909834367
219	9.141516	0	0	0	0	0	0	0	0	0	0	0	0	-0.425714721679688	-2.18306030273438	8.95198425292969	0.929205536875	0.368867248545497	-0.0226720795543266	-0.369553965294802	0.927868968487059	-0.0498903202399897	0.00263381391355084	0.0547369187042459	0.998497337380042
220	9.141516	0	0	0	0	0	0	0	0	0	0	0	0	-0.280816040039063	-2.12857360839844	8.880732421875	0.929461018567999	0.368106015940296	-0.0244984895677511	-0.368909344941565	0.927894392070577	-0.0540175191836933	0.00284783730642791	0.0592449001394888	0.998239415987036
221	9.141516	0	0	0	0	0	0	0	0	0	0	0	0	-0.299976196289063	-1.98367492675781	9.05916137695313	0.929536895015522	0.367805095504875	-0.0260877849874662	-0.368714155341146	0.927807214964382	-0.056777138983064	0.00332151410765124	0.0623953810845571	0.99804598289024
222	9.141516	0	0	0	0	0	0	0	0	0	0	0	0	-0.372425537109375	-1.523232421875	9.02263732910156	0.930193718212106	0.365992283080263	-0.0280944002326881	-0.367051149575275	0.928174804693039	-0.0613594779028298	0.00361941904267372	0.0673882828000228	0.997720260968503
223	9.141516	0	0	0	0	0	0	0	0	0	0	0	0	-0.525706787109375	-1.43282043457031	9.03101989746094	0.930891312577778	0.364097035840562	-0.0295755415730543	-0.365278100072612	0.928596630198431	-0.0654232985370053	0.00364331916879599	0.0717052778827045	0.997419209434628
224	9.141516	0	0	0	0	0	0	0	0	0	0	0	0	-0.27063720703125	-1.11967163085938	9.16154846191406	0.931695700335677	0.361658396967511	-0.0338574346178821	-0.363201187336185	0.928899374039946	-0.0723246183936191	0.00529334427362587	0.0796815964391255	0.99680631202622
225	9.141516	0	0	0	0	0	0	0	0	0	0	0	0	-0.335302734375	-0.9148974609375	9.34117492675781	0.932118544543123	0.360348342314812	-0.0361122016744663	-0.362105579068705	0.928969506352192	-0.0767802440415734	0.00587950049991199	0.0846447190244756	0.996393849346301
226	9.141516	0	0	0	0	0	0	0	0	0	0	0	0	-0.267044677734375	-0.353265380859375	9.1729248046875	0.932068213352864	0.360274263333812	-0.038095942519897	-0.362213781941377	0.928776886319708	-0.0785790787041419	0.00707261118146015	0.0870399369114369	0.99617971649373
227	9.141516	0	0	0	0	0	0	0	0	0	0	0	0	-0.0580792236328125	-0.664019165039063	9.16094970703125	0.932220175081965	0.359490278118211	-0.0416207293141526	-0.361778173456151	0.928623622061105	-0.0823086979659213	0.00906081568521632	0.0917873002577468	0.995737411735902
228	9.141516	0	0	0	0	0	0	0	0	0	0	0	0	-0.0281414794921875	-0.147892456054688	9.1058642578125	0.931889390245633	0.360440346569787	-0.0408034424071632	-0.362652190936923	0.928255000445955	-0.0826198678026705	0.00809646566551316	0.0917900360155317	0.995745467743637
229	9.141516	0	0	0	0	0	0	0	0	0	0	0	0	0.082628173828125	0.558638305664062	9.26752807617188	0.931703047723846	0.36068310627256	-0.0428617278195155	-0.363111995869154	0.927805483941816	-0.0855959252734221	0.00889434191027607	0.0953135919849346	0.995407559678403
230	9.141516	0	0	0	0	0	0	0	0	0	0	0	0	-0.229921875	0.056282958984375	9.23220153808594	0.931477250155269	0.361245555282393	-0.0430323277536215	-0.363706262265315	0.927379600097764	-0.0876631742039122	0.00823937086031998	0.097307379531188	0.995220270420875
231	9.141516	0	0	0	0	0	0	0	0	0	0	0	0	-0.316741333007813	0.417930908203125	9.06275390625	0.93152281068938	0.361085395883263	-0.043388823966365	-0.363599644873221	0.927210602059776	-0.0898654420565301	0.00778147887131225	0.0994878701539795	0.995008347843776
232	9.141516	0	0	0	0	0	0	0	0	0	0	0	0	-0.258662109375	0.028740234375	9.6806689453125	0.931573692410408	0.360395065426857	-0.0478105890448004	-0.363436929459703	0.926505621742846	-0.0974727202031694	0.00916809215388958	0.108179155547055	0.994089139057149
233	9.141516	0	0	0	0	0	0	0	0	0	0	0	0	-0.053887939453125	1.10051147460938	9.05197631835938	0.931409234297004	0.360685521856212	-0.0488138565325579	-0.363865324308634	0.925992286315343	-0.10069911345318	0.00888054232813432	0.111553753893788	0.993718720745545
234	9.141516	0	0	0	0	0	0	0	0	0	0	0	0	-0.0784368896484375	1.45018432617187	9.39147033691406	0.931809375342803	0.359435791675089	-0.0503706232456664	-0.362829616971732	0.9260362138443	-0.103978842545295	0.00927130365166686	0.115164414259852	0.993303176586476
235	9.141516	0	0	0	0	0	0	0	0	0	0	0	0	-0.234113159179688	1.03045715332031	8.67715576171875	0.931714945952871	0.3596426914302	-0.0506398458615513	-0.363076316472759	0.925818365825149	-0.105052091447165	0.00910208243274883	0.116264732407092	0.99317655232778
236	9.141516	0	0	0	0	0	0	0	0	0	0	0	0	-0.216150512695313	1.43761047363281	8.87713989257812	0.931649719778655	0.359755581525385	-0.0510364692909581	-0.363249857813125	0.925561653744417	-0.10670129294739	0.0088510132244167	0.11794721988768	0.992980419185428
237	9.141516	0	0	0	0	0	0	0	0	0	0	0	0	-0.0904119873046875	1.32803833007813	8.70409973144531	0.931605066018982	0.359898232808599	-0.0508454815004902	-0.363382488883013	0.92532422681705	-0.108297008447218	0.00807265389797013	0.119366399320232	0.992817452995447
238	9.141516	0	0	0	0	0	0	0	0	0	0	0	0	-0.16525634765625	1.48072082519531	9.23818908691406	0.931219654736414	0.360861119006882	-0.0510804015420354	-0.364371966603895	0.924862358335731	-0.108915968006897	0.00793880254221634	0.120036956487453	0.992737681611525
239	9.141516	0	0	0	0	0	0	0	0	0	0	0	0	-0.133522338867188	1.68369873046875	9.19867126464844	0.931128289678273	0.361053763303702	-0.051383734440467	-0.364604986535681	0.924694337489304	-0.109560878093116	0.00795688092977643	0.120749998838312	0.992651059449602
240	9.141516	0	0	0	0	0	0	0	0	0	0	0	0	-0.144299926757813	1.42443786621094	8.75858642578125	0.931029859702004	0.361312344808794	-0.0513496819078502	-0.364875187203213	0.924308705360058	-0.111890638388713	0.00703548908651707	0.122909750159963	0.992392913723657
241	9.141516	0	0	0	0	0	0	0	0	0	0	0	0	-0.226928100585938	1.55855895996094	9.28010192871094	0.930836444705742	0.361708830209049	-0.052059920825677	-0.365372938698782	0.923831021111519	-0.114187828154599	0.00679182406945801	0.125311478248601	0.9920942014471
242	9.141516	0	0	0	0	0	0	0	0	0	0	0	0	-0.286204833984375	1.63160705566406	8.842412109375	0.930807866714889	0.361604472683583	-0.0532815220963731	-0.365454097346746	0.923249980840474	-0.118544403539518	0.00632597772313057	0.129814013932598	0.991518181271808
243	9.141516	0	0	0	0	0	0	0	0	0	0	0	0	-0.262853393554688	1.90703430175781	8.80768432617188	0.930931268772822	0.360977182442864	-0.0553393763665108	-0.365139601994083	0.922668515667908	-0.123918849457144	0.00632802312147493	0.135566529611076	0.990748036673595
244	9.141516	0	0	0	0	0	0	0	0	0	0	0	0	-0.255668334960937	2.0932470703125	8.99808837890625	0.930976703928095	0.36056426339597	-0.0572345062431997	-0.365025379143411	0.922007392938588	-0.129069128562169	0.00623292262024161	0.14105239922919	0.98998251062698
245	9.141516	0	0	0	0	0	0	0	0	0	0	0	0	-0.053887939453125	2.4668701171875	8.56578735351563	0.930865236243729	0.360558319373593	-0.0590559927814045	-0.365321736703547	0.92094238287495	-0.135665604028854	0.00547180452970543	0.147860832390122	0.988993040218226
246	9.141516	0	0	0	0	0	0	0	0	0	0	0	0	-0.348475341796875	2.71475463867188	8.82744323730469	0.930760114853048	0.360502101844126	-0.0610233001787746	-0.365600897640756	0.919752273099587	-0.142799649062654	0.00464674542177623	0.155222391084892	0.987868623382115
247	9.141516	0	0	0	0	0	0	0	0	0	0	0	0	-0.20357666015625	3.28417053222656	8.69511840820313	0.930940647001191	0.359581420588354	-0.0636452176417536	-0.365132027951995	0.919126199978553	-0.147937928458692	0.00530225656379812	0.16096033822233	0.986946632597064
248	9.141516	0	0	0	0	0	0	0	0	0	0	0	0	-0.008382568359375	3.61947326660156	8.55261474609375	0.931413628762587	0.357972572748937	-0.0657593287284563	-0.363920019102463	0.918736468238238	-0.153249866641351	0.00555624439466337	0.166670150562828	0.985997053271252
249	9.141516	0	0	0	0	0	0	0	0	0	0	0	0	-0.206570434570313	3.64282470703125	8.6843408203125	0.93127361241524	0.358042444459135	-0.0673429044873864	-0.364279398979766	0.917900188958042	-0.157352351713379	0.00547524410510353	0.171069725774369	0.985243711284407
250	9.141516	0	0	0	0	0	0	0	0	0	0	0	0	-0.1005908203125	3.94100463867188	8.39514221191406	0.931351970755262	0.357494357856374	-0.0691468775227781	-0.36408198398605	0.917059011506946	-0.16262557717249	0.00527404086752928	0.176636784149744	0.984261972738033
251	9.141516	0	0	0	0	0	0	0	0	0	0	0	0	-0.0125738525390625	4.32001647949219	8.420888671875	0.93154870480021	0.356580131402045	-0.0711872212855003	-0.363572564181589	0.916457276324248	-0.167095934261626	0.00565695673264291	0.181539721718531	0.983367341474631
252	9.141516	0	0	0	0	0	0	0	0	0	0	0	0	-0.0233514404296875	4.53676574707031	8.36939575195312	0.931694164619948	0.356010068119294	-0.0721305414566796	-0.363216855231043	0.915486942827451	-0.173081407402758	0.00441584524302525	0.187457965715365	0.982262699790971
253	9.141516	0	0	0	0	0	0	0	0	0	0	0	0	-0.120349731445313	4.59903625488281	8.40532104492187	0.931524197334721	0.356084456643046	-0.0739359825601293	-0.363652771628939	0.914461890966833	-0.177527777139119	0.00439675636079576	0.192258445085234	0.981334478568298
254	9.141516	0	0	0	0	0	0	0	0	0	0	0	0	-0.0592767333984375	4.64514038085938	7.83770141601563	0.931312761270588	0.356467081039744	-0.074751326607345	-0.364197206978299	0.913748088686432	-0.180068944715906	0.00411523070545072	0.194924730490769	0.980809570874664
255	9.141516	0	0	0	0	0	0	0	0	0	0	0	0	-0.053887939453125	5.37562133789063	7.96463745117188	0.931441537584721	0.355676547708928	-0.0768820881068504	-0.363866677123591	0.912797292489001	-0.185478149936281	0.00420753382005865	0.200736883094782	0.979636157164763
256	9.141516	0	0	0	0	0	0	0	0	0	0	0	0	-0.087418212890625	5.12115051269531	7.67963012695313	0.931670137076406	0.354571075605196	-0.0791840136909372	-0.363277164599916	0.911914764401089	-0.190895689180118	0.00452298134831423	0.20661755688102	0.978411328546559
257	9.141516	0	0	0	0	0	0	0	0	0	0	0	0	0.0029937744140625	5.5995556640625	7.56586669921875	0.932308454059898	0.352267573671139	-0.0819054517617181	-0.361629366031474	0.911138602784349	-0.197612368387858	0.00501478933919478	0.213855098269911	0.976852521536312
258	9.141516	0	0	0	0	0	0	0	0	0	0	0	0	-0.06466552734375	5.43429931640625	7.47485595703125	0.932349376767743	0.351689865355053	-0.0838980229048711	-0.361525228930467	0.909970923782062	-0.20310693419476	0.00491411106660136	0.219697875451189	0.975555582749983
259	9.141516	0	0	0	0	0	0	0	0	0	0	0	0	0.15088623046875	6.05760314941406	7.44012817382813	0.932617194917462	0.350419452131602	-0.0862054250733315	-0.360832777375196	0.908831204128166	-0.20934552580519	0.00498743581291936	0.226344979998977	0.974034432406409
260	9.141516	0	0	0	0	0	0	0	0	0	0	0	0	0.11735595703125	6.15460144042969	7.14554077148438	0.932954629406833	0.349114412674612	-0.0878338564063949	-0.359963479739636	0.907858231067609	-0.214987733455944	0.00468537320723821	0.232190781784402	0.972658978333237
261	9.141516	0	0	0	0	0	0	0	0	0	0	0	0	0.305364990234375	6.16597778320313	7.08267150878906	0.933160288410292	0.347959526141601	-0.090200023843313	-0.359424971149566	0.906743975850446	-0.220519959126291	0.00505630775914123	0.238200609626088	0.971202812663558
262	9.141516	0	0	0	0	0	0	0	0	0	0	0	0	0.197589111328125	6.31387023925781	7.003037109375	0.933178019506427	0.347575759046822	-0.0914870243973809	-0.35938574828623	0.905587607128463	-0.225284197723876	0.00454618948219688	0.243109394179594	0.969988223960901
263	9.141516	0	0	0	0	0	0	0	0	0	0	0	0	0.0718505859375	6.428232421875	6.64677795410156	0.932914912236324	0.348639187918816	-0.0901137235630651	-0.360082738012998	0.9054138063216	-0.224869431242433	0.00319191355691936	0.242232442025301	0.970212995026507
264	9.141516	0	0	0	0	0	0	0	0	0	0	0	0	0.058677978515625	6.1552001953125	7.26349548339844	0.932600276535375	0.349958872211619	-0.0882355482020351	-0.360905810956146	0.905593451083258	-0.22281718284998	0.00192868458495505	0.23964408842174	0.970858893485704
265	9.141516	0	0	0	0	0	0	0	0	0	0	0	0	0.0383203125	6.33782043457031	6.89466247558594	0.93218725051629	0.351505174419102	-0.0864351915106111	-0.361973827897019	0.906118461264013	-0.218916153068056	0.0013703621633093	0.235358123958222	0.971907750557843
266	9.141516	0	0	0	0	0	0	0	0	0	0	0	0	-0.0820294189453125	5.56243286132813	7.55329284667969	0.931615047729698	0.353435848676091	-0.0847142474097644	-0.363446421011007	0.906159164987528	-0.216292086686951	0.000319214475253564	0.23229005269214	0.972646507998873
267	9.141516	0	0	0	0	0	0	0	0	0	0	0	0	-0.0353265380859375	5.930068359375	7.37486389160156	0.931647048575583	0.353342510556614	-0.084751679121747	-0.363364487718914	0.906054451990112	-0.216867653405644	0.000161075069024325	0.232839859694272	0.972515076383073
268	9.141516	0	0	0	0	0	0	0	0	0	0	0	0	-0.0952020263671875	5.6857763671875	7.52754638671875	0.931404687169298	0.354102803774193	-0.0842408041172359	-0.363985263172941	0.905993970746398	-0.216077886800338	-0.000192124928558378	0.231918367815984	0.972735233122344
269	9.141516	0	0	0	0	0	0	0	0	0	0	0	0	-0.0928070068359375	5.34628234863281	7.66166748046875	0.931229868219484	0.354551299697742	-0.0842870596151387	-0.364432336205758	0.906025192252182	-0.215191596796923	6.97390637955861e-05	0.231109772374598	0.972927678838168
270	9.141516	0	0	0	0	0	0	0	0	0	0	0	0	-0.06945556640625	5.21096374511719	7.71615417480469	0.930975914117675	0.355375418762035	-0.0836191310195624	-0.365080372394775	0.90596864489278	-0.214329503716197	-0.000411126319297885	0.230063309136524	0.973175577562601
271	9.141516	0	0	0	0	0	0	0	0	0	0	0	0	-0.0772393798828125	5.33370849609375	7.78920227050781	0.930968337401091	0.355430195093444	-0.0834705407463331	-0.365099013068461	0.905798426276664	-0.215016096167599	-0.000815728560589771	0.230648189610399	0.973036868374658
272	9.141516	0	0	0	0	0	0	0	0	0	0	0	0	-0.24189697265625	4.59723999023438	7.72453674316406	0.930609549442185	0.356688367490781	-0.0820930873080997	-0.366010668674852	0.906014116282302	-0.212543199169926	-0.0014341907828551	0.227841676595746	0.973697136435574
273	9.141516	0	0	0	0	0	0	0	0	0	0	0	0	-0.121547241210938	4.99062194824219	7.67064880371094	0.930471565524141	0.357172488902194	-0.081550468560686	-0.36635747584346	0.905770526608635	-0.212983457152724	-0.0022058206328389	0.228051674623383	0.973646531374096
274	9.141516	0	0	0	0	0	0	0	0	0	0	0	0	-0.176033935546875	4.65591796875	8.14845520019531	0.930050669898737	0.358511009984743	-0.080471157197038	-0.367424145667559	0.906088256684073	-0.209770275014555	-0.00229098262223138	0.224664030986131	0.974433591672458
275	9.141516	0	0	0	0	0	0	0	0	0	0	0	0	-0.154478759765625	4.29367126464844	8.27479248046875	0.930230299485256	0.3579723162656	-0.0807923926308187	-0.366972044522294	0.906338407515361	-0.209480809626194	-0.00176308215870982	0.224513945780568	0.974469281040373
276	9.141516	0	0	0	0	0	0	0	0	0	0	0	0	-0.200582885742188	4.14697631835937	8.41370361328125	0.930060243462166	0.358592664173485	-0.0799952794361046	-0.367403552755497	0.906788127864002	-0.206760539241748	-0.00160404293482205	0.221690307334043	0.975115805779192
277	9.141516	0	0	0	0	0	0	0	0	0	0	0	0	-0.229323120117188	3.86256774902344	8.54962097167969	0.929683473632503	0.359625060645459	-0.0797399185499528	-0.368356749682472	0.906813516241874	-0.204945240794742	-0.00139420872468376	0.219906940583511	0.975519858160372
278	9.141516	0	0	0	0	0	0	0	0	0	0	0	0	-0.13172607421875	4.16194519042969	8.21551574707031	0.929535967440513	0.360144774505512	-0.0791114822943143	-0.36872934965064	0.907159741374768	-0.202731029531942	-0.00124576909816707	0.217616509082466	0.976033556305374
279	9.141516	0	0	0	0	0	0	0	0	0	0	0	0	-0.259260864257813	3.01413208007813	8.48974548339844	0.929070965601678	0.361574298879747	-0.0780459304870234	-0.369899526531162	0.907456600023371	-0.199240707050661	-0.00121702423473325	0.213977908821553	0.976837741586784
280	9.141516	0	0	0	0	0	0	0	0	0	0	0	0	-0.147293701171875	3.50930236816406	7.81973876953125	0.929059673394847	0.361716489583292	-0.0775197035275646	-0.369925471456583	0.907397131371303	-0.199463258638664	-0.00180799310995576	0.213989782799718	0.976834225453963
281	9.141516	0	0	0	0	0	0	0	0	0	0	0	0	-0.104183349609375	2.91234375	8.63823669433594	0.928623769000038	0.363112003875818	-0.0762074031144789	-0.371013809183348	0.907374660368657	-0.197534754198159	-0.00257857391343306	0.211709466869464	0.977329244724837
282	9.141516	0	0	0	0	0	0	0	0	0	0	0	0	-0.192200317382813	3.41829162597656	8.77116027832031	0.928553860600746	0.363412408001002	-0.0756250598304881	-0.371187775385268	0.907565279078073	-0.19632855018177	-0.00271355265054963	0.210372730939286	0.977617486908433
283	9.141516	0	0	0	0	0	0	0	0	0	0	0	0	-0.4215234375	2.34173034667969	8.78792541503906	0.92812296621386	0.364903795189266	-0.073708750110539	-0.372256966364724	0.907826485417013	-0.193069478085814	-0.00353702973139297	0.206630812397052	0.978412590264871
284	9.141516	0	0	0	0	0	0	0	0	0	0	0	0	-0.29937744140625	2.62254638671875	8.90887390136719	0.928561674446496	0.363478793997304	-0.0752089294125725	-0.371168116556431	0.907786348050334	-0.19534117729089	-0.0027287361674916	0.209301487351868	0.97784735076147
285	9.141516	0	0	0	0	0	0	0	0	0	0	0	0	-0.503552856445313	2.14653625488281	8.61009521484375	0.928299431576436	0.36474652870168	-0.0722505026622085	-0.371805501439782	0.908152570631157	-0.192404723318153	-0.00456447521402565	0.205472329660461	0.978652281103929
286	9.141516	0	0	0	0	0	0	0	0	0	0	0	0	-0.262853393554688	2.21419555664063	8.9621630859375	0.928116136453799	0.36535106201009	-0.0715474579714169	-0.372258946810636	0.908223751311637	-0.191188111745613	-0.00486967899435159	0.204078952960654	0.978942320662957
287	9.141516	0	0	0	0	0	0	0	0	0	0	0	0	-0.3975732421875	1.97529235839844	9.07592651367188	0.927650876672308	0.367109964990115	-0.0685136819478788	-0.373394392696865	0.90864774142636	-0.186911501795143	-0.00636227252152089	0.198971243162757	0.979984676350926
288	9.141516	0	0	0	0	0	0	0	0	0	0	0	0	-0.431103515625	1.91541687011719	9.06455017089844	0.927515871491281	0.367555240761747	-0.067951844127623	-0.373734143361138	0.908976796516556	-0.184618453792181	-0.00609083064012732	0.196632470317274	0.980458348630395
289	9.141516	0	0	0	0	0	0	0	0	0	0	0	0	-0.379610595703125	1.81243103027344	9.00766845703125	0.927536690122266	0.367579174505586	-0.0675369450510176	-0.373693864254259	0.909587709690842	-0.181667537546168	-0.00534642831721165	0.193741448454277	0.981038055762919
290	9.141516	0	0	0	0	0	0	0	0	0	0	0	0	-0.348475341796875	0.98914306640625	9.05916137695313	0.927195301728511	0.368570217497396	-0.0668196619753364	-0.374545791393552	0.909895806715887	-0.178339763009329	-0.00493179500325103	0.190382813548828	0.981697540846099
291	9.141516	0	0	0	0	0	0	0	0	0	0	0	0	-0.228125610351563	0.988544311523438	8.99928588867188	0.927239632805915	0.368524316990776	-0.0664566861981085	-0.374433314406881	0.910002121498074	-0.178033232659756	-0.00513385003958602	0.189963066556338	0.981777814440866
292	9.141516	0	0	0	0	0	0	0	0	0	0	0	0	-0.419727172851563	0.838855590820313	9.38907531738281	0.927343204542506	0.368404148781311	-0.0656731615620488	-0.374170575257372	0.91024029321294	-0.177366821088921	-0.00556431490885085	0.189052880888759	0.981951142688503
293	9.141516	0	0	0	0	0	0	0	0	0	0	0	0	-0.284408569335938	0.689166870117188	9.03281616210938	0.927304238950814	0.368726018475307	-0.0644047492286048	-0.374257603939658	0.910512944402771	-0.175776630893709	-0.00617205939678189	0.187102382064861	0.982321029149055
294	9.141516	0	0	0	0	0	0	0	0	0	0	0	0	-0.382604370117188	0.881965942382813	9.26992309570313	0.926867682481561	0.370091882709326	-0.0628354798177538	-0.375321440578301	0.910471421454028	-0.173711274699462	-0.00707922407394475	0.184590869406237	0.982789954933587
295	9.141516	0	0	0	0	0	0	0	0	0	0	0	0	-0.36643798828125	0.822090454101563	9.04299499511719	0.926861962670841	0.370106391780178	-0.0628343927910071	-0.37532983112212	0.910320810882628	-0.174480770126215	-0.00737699286961318	0.185303211082413	0.982653702958855
296	9.141516	0	0	0	0	0	0	0	0	0	0	0	0	-0.367635498046875	0.683179321289063	9.25435546875	0.926620830816816	0.370913218855743	-0.0616215869190793	-0.375913282863484	0.910427299235501	-0.172659597397738	-0.00793975208378841	0.183154352623197	0.983052106173434
297	9.141516	0	0	0	0	0	0	0	0	0	0	0	0	-0.4981640625	0.508941650390625	9.14717834472656	0.9266204749987	0.371069070652876	-0.0606814643692335	-0.375902060545278	0.910594607502325	-0.171799597396212	-0.00849330271438231	0.182003312037163	0.983261235998097
298	9.141516	0	0	0	0	0	0	0	0	0	0	0	0	-0.477207641601563	0.52929931640625	9.13340698242188	0.926629573274487	0.371110746795769	-0.0602863794387148	-0.375871523928532	0.910614419179629	-0.171761395784357	-0.00884485346318834	0.181819122192452	0.983292212606396
299	9.141516	0	0	0	0	0	0	0	0	0	0	0	0	-0.49576904296875	0.154478759765625	8.99449584960938	0.926701092269081	0.371292698539219	-0.0580242845604858	-0.375643115414392	0.910757173631527	-0.171503995639991	-0.0108321479431313	0.180729363110084	0.983473213606126
300	9.141516	0	0	0	0	0	0	0	0	0	0	0	0	-0.545465698242187	0.510737915039063	9.26273803710938	0.926687737630949	0.371410775856913	-0.0574793223846489	-0.375672623237717	0.91094085493858	-0.170460666880843	-0.0109506654649386	0.179557217569039	0.983686580443558
301	9.141516	0	0	0	0	0	0	0	0	0	0	0	0	-0.701141967773438	0.047900390625	8.93222534179688	0.92640687327586	0.372117538445586	-0.0574355528261327	-0.376377750540102	0.910958753100927	-0.168801478213842	-0.0104925709727548	0.177996313810156	0.983975212200175
302	9.141516	0	0	0	0	0	0	0	0	0	0	0	0	-0.559835815429688	0.329913940429688	8.96635437011719	0.926383924735154	0.372016060325567	-0.058454040511653	-0.376460170509049	0.910940721939224	-0.168714970091998	-0.00951651262762114	0.178300454213359	0.9839300706934
303	9.141516	0	0	0	0	0	0	0	0	0	0	0	0	-0.575403442382812	0.05748046875	9.12143188476563	0.926196833231042	0.372646986599269	-0.0573903257637862	-0.376905074934399	0.910999112139644	-0.167401260955451	-0.0100990396317523	0.176677222808331	0.984217033148305
304	9.141516	0	0	0	0	0	0	0	0	0	0	0	0	-0.5412744140625	-0.197589111328125	9.14178955078125	0.926371257147808	0.371964644674324	-0.0589796324394621	-0.376501020933733	0.91087762219881	-0.168964311655741	-0.0091255227930522	0.178729573629396	0.983855916455254
305	9.141516	0	0	0	0	0	0	0	0	0	0	0	0	-0.490380249023438	0.0101788330078125	8.9909033203125	0.926203762569435	0.372484200616384	-0.0583276134724887	-0.376894177516693	0.910690380094169	-0.169097044793673	-0.0098675810733178	0.178601657033498	0.983871983008283
306	9.141516	0	0	0	0	0	0	0	0	0	0	0	0	-0.520317993164063	-0.19878662109375	9.04539001464844	0.926084917492685	0.372889068352861	-0.0576235047138074	-0.377167278492941	0.910587536161146	-0.169041956396044	-0.0105626524507496	0.178280906691964	0.983922938386079
307	9.141516	0	0	0	0	0	0	0	0	0	0	0	0	-0.546663208007813	0.0880169677734375	9.28369445800781	0.926133216042619	0.372775211381719	-0.0575839206885902	-0.377044076771911	0.910566487157762	-0.169429739527602	-0.0107252185885706	0.178626185774898	0.983858554590923
308	9.141516	0	0	0	0	0	0	0	0	0	0	0	0	-0.618513793945313	0.0736468505859375	9.30824340820313	0.926089210777661	0.372881491887587	-0.0576035301773744	-0.3771458389193	0.910418874391464	-0.169995556817342	-0.0109448557352515	0.17915598276214	0.983759799937701
309	9.141516	0	0	0	0	0	0	0	0	0	0	0	0	-0.576600952148438	0.049097900390625	9.05736511230469	0.926041472124435	0.373016311713668	-0.0574980269326006	-0.377257279414619	0.910336089225151	-0.170191509138788	-0.0111416800479476	0.179295944878264	0.983732091128433
310	9.141516	0	0	0	0	0	0	0	0	0	0	0	0	-0.550255737304688	0.18441650390625	9.18789367675781	0.925914683394989	0.373313762628332	-0.0576093196091961	-0.377565697007832	0.910143398456762	-0.170537792552165	-0.0112313630760831	0.179654749110211	0.983665607615515
311	9.141516	0	0	0	0	0	0	0	0	0	0	0	0	-0.678389282226563	0.240699462890625	9.22681274414063	0.925953167635783	0.373195593438165	-0.0577562151079569	-0.37746512856097	0.910007982617941	-0.171480460379821	-0.0114371353804572	0.180583832637258	0.983493096734455
312	9.141516	0	0	0	0	0	0	0	0	0	0	0	0	-0.60593994140625	-0.0077838134765625	9.02203857421875	0.925842439781664	0.373514167054089	-0.0574712424524387	-0.377728344161872	0.909923009993101	-0.171351725704255	-0.0117078911793391	0.180353217035311	0.98353222742783
313	9.141516	0	0	0	0	0	0	0	0	0	0	0	0	-0.489182739257813	0.255668334960937	9.11005554199219	0.925835279900877	0.373480048381619	-0.0578073347571834	-0.377755921227154	0.909919962664949	-0.171307108788989	-0.0113797393946101	0.18043922800955	0.983520303057659
314	9.141516	0	0	0	0	0	0	0	0	0	0	0	0	-0.624501342773437	-0.0916094970703125	9.16274597167969	0.925595358563332	0.374158700640014	-0.0572581779433487	-0.378327113154555	0.909731569118206	-0.171046974839859	-0.0119091417892347	0.179982607173869	0.983597698989145
315	9.141516	0	0	0	0	0	0	0	0	0	0	0	0	-0.509540405273438	0.18920654296875	8.9525830078125	0.925690058996051	0.37389584585912	-0.0574439824975698	-0.378094389009185	0.909706035520671	-0.171696132562838	-0.0119393331329392	0.180656650546161	0.983473755083369
316	9.141516	0	0	0	0	0	0	0	0	0	0	0	0	-0.66342041015625	0.224533081054688	9.34356994628906	0.925709962124273	0.373901371129489	-0.057086169002372	-0.378039174814806	0.909788609967786	-0.171379892280939	-0.0121428303628132	0.180228881815245	0.983549745478289
317	9.141516	0	0	0	0	0	0	0	0	0	0	0	0	-0.619112548828125	0.169447631835938	9.26333679199219	0.925471380107079	0.374511665319631	-0.0569538158705476	-0.378633528477795	0.90982198178565	-0.169884115125837	-0.0118057492415324	0.178787510747118	0.983816878430989
318	9.141516	0	0	0	0	0	0	0	0	0	0	0	0	-0.513731689453125	0.18920654296875	8.957373046875	0.925636651390583	0.374098972366223	-0.0569802463750877	-0.37822098607562	0.909814589029555	-0.170839981505995	-0.0120696020819042	0.179686873375656	0.983649811793845
319	9.141516	0	0	0	0	0	0	0	0	0	0	0	0	-0.611927490234375	0.426912231445313	9.37111267089844	0.925663532688712	0.373954311974129	-0.057490841063685	-0.378160270047072	0.909678108189501	-0.171699008845994	-0.0119094251826073	0.180676263069409	0.983470514837681
320	9.141516	0	0	0	0	0	0	0	0	0	0	0	0	-0.50055908203125	-0.141904907226563	9.03042114257813	0.925630641309387	0.373951921803269	-0.0580334045943764	-0.378251623538745	0.909570428234226	-0.172067851070762	-0.0115596349196732	0.181222504842662	0.983374180350021
321	9.141516	0	0	0	0	0	0	0	0	0	0	0	0	-0.487386474609375	0.42870849609375	9.57169555664063	0.92602992178225	0.372909041960426	-0.0583731992280575	-0.37726071572306	0.909531354004499	-0.174433564587979	-0.0119555985247757	0.183552615091426	0.98293718067688
322	9.141516	0	0	0	0	0	0	0	0	0	0	0	0	-0.411344604492188	0.295186157226562	9.11724060058594	0.926035010497826	0.372795839084648	-0.0590120470197865	-0.37726296602828	0.909467368531592	-0.174762009715404	-0.0114810189372257	0.184098799391511	0.982840688141658
323	9.141516	0	0	0	0	0	0	0	0	0	0	0	0	-0.44068359375	0.40954833984375	9.13879577636719	0.92590275010364	0.373149632336076	-0.0588510767783232	-0.377595676898653	0.909573397818086	-0.173486998847492	-0.0112072359645183	0.182854001512445	0.983076198467302
324	9.141516	0	0	0	0	0	0	0	0	0	0	0	0	-0.4358935546875	0.325123901367187	9.10646301269531	0.925908926498829	0.373073980116963	-0.0592322985327691	-0.377576342302672	0.909332076015555	-0.174789248132076	-0.0113474914903091	0.184203639727691	0.982822595155377
325	9.141516	0	0	0	0	0	0	0	0	0	0	0	0	-0.5412744140625	0.281414794921875	9.47709228515625	0.926055980512052	0.372607038553379	-0.0598691554837906	-0.3772356672126	0.90948409508023	-0.174733889611492	-0.0106570324446584	0.184398144287238	0.982793850226433
326	9.141516	0	0	0	0	0	0	0	0	0	0	0	0	-0.122744750976563	0.534688110351562	8.85079467773438	0.925641075837453	0.37343541674455	-0.0611112775460149	-0.37827262851549	0.908942258346924	-0.175310551613919	-0.00992054627852014	0.185391371190836	0.982614686563109
327	9.141516	0	0	0	0	0	0	0	0	0	0	0	0	-0.22752685546875	0.722098388671875	9.120234375	0.925315689926219	0.374283567169783	-0.060849694518775	-0.379036003858974	0.908249609247808	-0.177240952039374	-0.0110716645083395	0.187068058865929	0.982284561416471
328	9.141516	0	0	0	0	0	0	0	0	0	0	0	0	-0.498762817382813	0.619711303710938	9.41182800292969	0.925281158043453	0.374478358716331	-0.0601725637054822	-0.379088769029619	0.908034774824578	-0.178226128569542	-0.0121030477721628	0.187720021740895	0.982148008027417
329	9.141516	0	0	0	0	0	0	0	0	0	0	0	0	-0.314346313476562	0.904119873046875	9.25136169433594	0.925406837344164	0.374279264015949	-0.0594745149148103	-0.378748846349966	0.907971247052427	-0.179269422698437	-0.0130956781130967	0.188423053403083	0.982000639592978
330	9.141516	0	0	0	0	0	0	0	0	0	0	0	0	-0.489781494140625	0.451461181640625	9.71659423828125	0.925380980475831	0.374490535252899	-0.0585395590997084	-0.378760577779999	0.907696983951847	-0.180628375524122	-0.0145074357952138	0.18932254047186	0.981807776489843
331	9.141516	0	0	0	0	0	0	0	0	0	0	0	0	-0.568817138671875	0.899329833984375	9.32800231933594	0.925057492063054	0.375252893077466	-0.0587699124978464	-0.379572525437691	0.907640353105762	-0.179202922261053	-0.0139044708948562	0.18808044994374	0.982055197042455
332	9.141516	0	0	0	0	0	0	0	0	0	0	0	0	-0.128133544921875	0.44307861328125	9.26034301757813	0.925054665940874	0.375445744891002	-0.0575704582599373	-0.379525344751073	0.907515424458658	-0.179934063093124	-0.0153093994852161	0.188298292644574	0.981992553573875
333	9.141516	0	0	0	0	0	0	0	0	0	0	0	0	-0.690963134765625	0.85981201171875	9.0100634765625	0.925042115076389	0.375634553913858	-0.0565311174570114	-0.379542405109633	0.907837720446854	-0.178264511491926	-0.0156412294464549	0.18635813703672	0.982357367103035
334	9.141516	0	0	0	0	0	0	0	0	0	0	0	0	-0.583187255859375	0.0676593017578125	9.01664978027344	0.924933759556817	0.375785965499676	-0.0572926571697468	-0.379797124403859	0.907280974367233	-0.180541900526734	-0.0158645745815293	0.188748885254251	0.981897231683961
335	9.141516	0	0	0	0	0	0	0	0	0	0	0	0	-0.116757202148438	0.723894653320313	9.04479125976563	0.924830002735667	0.376011117652564	-0.0574900464569027	-0.380042095618789	0.907016794959137	-0.181351976056881	-0.0160459215262572	0.189568386245507	0.981736398091997
336	9.141516	0	0	0	0	0	0	0	0	0	0	0	0	-0.480800170898438	0.36164794921875	9.18549865722656	0.924498105898628	0.376572989810126	-0.0591272824955753	-0.380865750128594	0.906176441858262	-0.183808423637446	-0.0156375371728504	0.192450096301774	0.981182158350123
337	9.141516	0	0	0	0	0	0	0	0	0	0	0	0	-0.63468017578125	1.02746337890625	9.11664184570312	0.924239531804644	0.377225727581947	-0.0590087984948299	-0.38149698215163	0.906090512681312	-0.182920844733773	-0.0155351362637133	0.191574354440223	0.981355147875671
338	9.141516	0	0	0	0	0	0	0	0	0	0	0	0	-0.380209350585938	0.875978393554688	9.24417663574219	0.924104113600646	0.377518912657481	-0.0592541797030284	-0.381815265172282	0.905750808882442	-0.183936335426751	-0.0157699241528254	0.192600474544367	0.981150532129245
339	9.141516	0	0	0	0	0	0	0	0	0	0	0	0	-0.391585693359375	0.850830688476563	9.16573974609375	0.923581283969912	0.379002334066189	-0.0579210037280945	-0.3830267205298	0.905397503505537	-0.183155376678189	-0.0169747830818543	0.191344170066201	0.981376209881308
340	9.141516	0	0	0	0	0	0	0	0	0	0	0	0	-0.364641723632812	1.11847412109375	9.01545227050781	0.923555978898313	0.379361503582097	-0.0559392835233824	-0.383043686224656	0.905850303411347	-0.180866697468045	-0.0179412453471366	0.188467709195768	0.981915492446215
341	9.141516	0	0	0	0	0	0	0	0	0	0	0	0	-0.68737060546875	0.674796752929688	8.75918518066406	0.924098201828022	0.378176227217792	-0.0550023140016288	-0.381693024960649	0.906295620679512	-0.181490172278084	-0.0187869123223173	0.188708741462752	0.981853381529512
342	9.141516	0	0	0	0	0	0	0	0	0	0	0	0	-0.93166259765625	0.11256591796875	9.19028869628906	0.923518625044064	0.379592569945616	-0.0549802695410354	-0.383068977574388	0.905623127463107	-0.181947545803881	-0.0192745328564757	0.18909318297079	0.981769963146734
343	9.141516	0	0	0	0	0	0	0	0	0	0	0	0	-0.476010131835938	0.9580078125	9.1920849609375	0.923332476826102	0.379962659033492	-0.0555474119862866	-0.383535270560312	0.905386026984805	-0.182145102533392	-0.0189164868409636	0.189484880348987	0.98170140401485
344	9.141516	0	0	0	0	0	0	0	0	0	0	0	0	-0.710722045898438	0.350870361328125	9.19328247070313	0.923198879277749	0.380287973351232	-0.055541755686339	-0.383863327247081	0.905352854665159	-0.181618155877789	-0.0187823133588106	0.188990121101769	0.981799347540439
345	9.141516	0	0	0	0	0	0	0	0	0	0	0	0	-0.559835815429688	0.772393798828125	9.378896484375	0.923205410852648	0.380483489337137	-0.0540747974035194	-0.383818210194011	0.905765001680637	-0.179647831197434	-0.0193739747047699	0.186606741765437	0.982243642398273
346	9.141516	0	0	0	0	0	0	0	0	0	0	0	0	-0.654439086914062	0.327518920898438	8.75619140625	0.923243396646792	0.380477808380043	-0.0534627709571118	-0.38371491071395	0.90596883299976	-0.178838868618759	-0.0196086165722836	0.185626266900381	0.982424750906017
347	9.141516	0	0	0	0	0	0	0	0	0	0	0	0	-0.546064453125	0.893941040039062	9.22322021484375	0.923358866916861	0.380132378847171	-0.0539238114194597	-0.383456589775293	0.906028796563579	-0.179088982227985	-0.0192209948731483	0.186040840541918	0.982353988644899
348	9.141516	0	0	0	0	0	0	0	0	0	0	0	0	-0.793350219726562	0.34727783203125	9.32201477050781	0.923252121854616	0.380448437422259	-0.0535210795286395	-0.383707265068541	0.906075266248715	-0.178315301154837	-0.0193456513090066	0.185166407199798	0.982516741547008
349	9.141516	0	0	0	0	0	0	0	0	0	0	0	0	-0.770597534179688	0.2155517578125	9.08790161132812	0.923248251979968	0.380516320936948	-0.0531036224427572	-0.383681568748786	0.905938587288721	-0.179063479983463	-0.0200279559217693	0.185694926053263	0.982403316067118
350	9.141516	0	0	0	0	0	0	0	0	0	0	0	0	-0.643661499023438	0.607736206054687	9.11005554199219	0.923285704159797	0.380484302449236	-0.0526802058069929	-0.383583526112382	0.906093558179684	-0.178488493524015	-0.0201788748284037	0.185003133527514	0.982530739262473
351	9.141516	0	0	0	0	0	0	0	0	0	0	0	0	-0.654439086914062	0.3448828125	9.04119873046875	0.92331961996906	0.380473855249236	-0.0521586507875098	-0.38347207264175	0.90609508506191	-0.178720078140345	-0.0207376200184787	0.185017140553068	0.982516467453618
352	9.141516	0	0	0	0	0	0	0	0	0	0	0	0	-0.72090087890625	0.265248413085937	8.93462036132813	0.923297082315057	0.380591131294644	-0.0516999861544097	-0.383484963620021	0.905930467604384	-0.179525125103574	-0.0214890778269771	0.185581191519955	0.982393933658072
353	9.141516	0	0	0	0	0	0	0	0	0	0	0	0	-0.684376831054687	0.69216064453125	9.18370239257812	0.923336915889216	0.380501932136221	-0.0516451294585919	-0.38339004492634	0.905995719451356	-0.179398522254782	-0.021471218120332	0.185445506757169	0.982419946263311
354	9.141516	0	0	0	0	0	0	0	0	0	0	0	0	-0.731079711914063	0.390986938476563	9.17052978515625	0.923234691726352	0.380811126905542	-0.0511916948135112	-0.383623339091621	0.906020218700641	-0.178774989889071	-0.0216987948315902	0.184689601576737	0.982557333376675
355	9.141516	0	0	0	0	0	0	0	0	0	0	0	0	-0.734672241210938	0.327518920898438	9.06694519042969	0.923207603276955	0.380894186782605	-0.0510621163568449	-0.383670659738579	0.905909043950228	-0.179236237811856	-0.0220124080324158	0.185063293400941	0.982480041185679
356	9.141516	0	0	0	0	0	0	0	0	0	0	0	0	-0.672401733398438	0.506546630859375	9.22860900878906	0.923204891064417	0.380961664028169	-0.050605727498256	-0.3836622388105	0.905996695503153	-0.178810721849342	-0.0222714082548506	0.184494439694687	0.98258118549873
357	9.141516	0	0	0	0	0	0	0	0	0	0	0	0	-0.746048583984375	0.3688330078125	9.00467468261719	0.923131401268276	0.381173684755322	-0.0503491612891389	-0.38381896364348	0.905895236147714	-0.178988335576714	-0.0226145780441345	0.184554715937924	0.98256202739825
358	9.141516	0	0	0	0	0	0	0	0	0	0	0	0	-0.704734497070313	0.382005615234375	9.01126098632812	0.923044992970573	0.381449972890116	-0.0498383299688565	-0.383987279287711	0.905750946532056	-0.179357163786414	-0.0232746707211069	0.184692016715437	0.982520813349218
359	9.141516	0	0	0	0	0	0	0	0	0	0	0	0	-0.722697143554688	0.485590209960938	9.2016650390625	0.922944006286777	0.381702229272966	-0.0497771978657156	-0.384228559055692	0.905690489424804	-0.179145616110039	-0.0232975463364855	0.184467193651086	0.982562506307458
360	9.141516	0	0	0	0	0	0	0	0	0	0	0	0	-0.746048583984375	0.414937133789062	9.14238830566406	0.922835594696772	0.382012999715509	-0.0494017530965712	-0.384471628199225	0.905646870165052	-0.178844383948959	-0.0235803365220375	0.18403753586865	0.982636328007928
361	9.141516	0	0	0	0	0	0	0	0	0	0	0	0	-0.70174072265625	0.324525146484375	9.02084106445313	0.922853507437795	0.38199167330225	-0.0492317513146495	-0.384411198073125	0.905605102295784	-0.179185461161968	-0.0238628289551918	0.184287167821284	0.982582721795303
362	9.141516	0	0	0	0	0	0	0	0	0	0	0	0	-0.719104614257813	0.402962036132813	9.17771484375	0.922821942679172	0.382112326283313	-0.0488859101602405	-0.384462467653732	0.905555229135959	-0.179327460111729	-0.0242543413730942	0.184282112769732	0.982574083638319
363	9.141516	0	0	0	0	0	0	0	0	0	0	0	0	-0.7328759765625	0.499960327148438	9.10167297363281	0.922738142699496	0.382307621963652	-0.0489408029764728	-0.384655431630102	0.905402936203755	-0.179682280793291	-0.0243827587640204	0.18462503974845	0.98250652708923
364	9.141516	0	0	0	0	0	0	0	0	0	0	0	0	-0.731678466796875	0.633482666015625	9.17352355957031	0.92268940614902	0.382458718866784	-0.0486784155776275	-0.384754050818812	0.90535095696764	-0.179733038410567	-0.0246694174816664	0.184566988057339	0.982510278195886
365	9.141516	0	0	0	0	0	0	0	0	0	0	0	0	-0.708327026367188	0.416134643554688	9.13999328613281	0.922744845486944	0.382385563519312	-0.0481999060091982	-0.384592083975753	0.905404000111328	-0.179812473220279	-0.0251173061944196	0.184458335117785	0.982519334942123
366	9.141516	0	0	0	0	0	0	0	0	0	0	0	0	-0.705333251953125	0.367635498046875	9.11364807128906	0.922725772078782	0.382434405282344	-0.0481775383135676	-0.384626801046646	0.905318869192104	-0.180166503549781	-0.0252858351303617	0.184774648534556	0.982455574466699
367	9.141516	0	0	0	0	0	0	0	0	0	0	0	0	-0.702938232421875	0.7807763671875	9.13999328613281	0.922713670219736	0.382506574899727	-0.0478351643469938	-0.384630685676517	0.905288456144742	-0.180310972508834	-0.0256655104300729	0.184774271286749	0.982445800156332
368	9.141516	0	0	0	0	0	0	0	0	0	0	0	0	-0.708327026367188	0.390986938476563	9.08071655273438	0.922613632996211	0.382777097579856	-0.0476001867420108	-0.384852616764534	0.90519310550695	-0.180316125491249	-0.0259335223026739	0.184681172053425	0.98245626727603
369	9.141516	0	0	0	0	0	0	0	0	0	0	0	0	-0.695154418945312	0.573607177734375	9.19986877441406	0.922516637767079	0.383037018774405	-0.0473887675651192	-0.385070443542404	0.905113892028715	-0.180248705866887	-0.0261496950838879	0.184530443843416	0.982478859183225
370	9.141516	0	0	0	0	0	0	0	0	0	0	0	0	-0.79754150390625	0.513731689453125	9.04718627929688	0.922542126788238	0.383006703539711	-0.047136921247355	-0.384996640905972	0.905162643567862	-0.180161525249865	-0.0263364916447312	0.184354153012304	0.982506964593617
371	9.141516	0	0	0	0	0	0	0	0	0	0	0	0	-0.770597534179688	0.331111450195313	9.12262939453125	0.922392989093054	0.383377463537965	-0.0470414086011297	-0.385342887843173	0.90501568960633	-0.180159541393354	-0.0264958951663425	0.184304970138019	0.982511906045804
372	9.141516	0	0	0	0	0	0	0	0	0	0	0	0	-0.734672241210938	0.588576049804688	9.14957336425781	0.922454610817557	0.383260472829689	-0.046785691699417	-0.385178998594645	0.905070450780032	-0.18023489719379	-0.0267325648424552	0.184279377823979	0.982510295562215
373	9.141516	0	0	0	0	0	0	0	0	0	0	0	0	-0.75443115234375	0.4646337890625	9.07413024902344	0.922335653114845	0.383565626870728	-0.04662995685691	-0.385441631713337	0.904899742862717	-0.180530340688617	-0.0270497973258981	0.184482696343731	0.982463456426942
374	9.141516	0	0	0	0	0	0	0	0	0	0	0	0	-0.7711962890625	0.565224609375	9.15496215820312	0.922234625945957	0.383846662827613	-0.0463145133022836	-0.385655143958255	0.904779302406425	-0.180677956252229	-0.0274482175169984	0.184488897695903	0.982451241529111
375	9.141516	0	0	0	0	0	0	0	0	0	0	0	0	-0.7424560546875	0.671802978515625	9.18669616699219	0.922217725359578	0.383955239724343	-0.0457475783056147	-0.385665010759771	0.904829340817753	-0.180406107077828	-0.0278741189685249	0.184016949989759	0.982527758187114
376	9.141516	0	0	0	0	0	0	0	0	0	0	0	0	-0.787362670898438	0.491577758789063	9.03042114257813	0.922199573894227	0.384057582933255	-0.0452517281523316	-0.385670993399823	0.904803551615041	-0.180522624163292	-0.0283871583519743	0.183930166031224	0.982529319289977
377	9.141516	0	0	0	0	0	0	0	0	0	0	0	0	-0.752634887695313	0.54845947265625	9.1346044921875	0.922154325203711	0.384270934835956	-0.0443536824670735	-0.385748605642438	0.90499315450284	-0.179402908415429	-0.0287995443193921	0.182546539116194	0.982775329006429
378	9.141516	0	0	0	0	0	0	0	0	0	0	0	0	-0.840053100585938	-0.118553466796875	8.91785522460938	0.922230874541847	0.384136881053767	-0.0439211868699361	-0.385518327756965	0.904958600694701	-0.18007095821415	-0.029425040446079	0.182999419788623	0.982672569756465
379	9.141516	0	0	0	0	0	0	0	0	0	0	0	0	-0.623902587890625	0.575403442382812	9.43458068847656	0.922246619979433	0.384196423423789	-0.0430613534956945	-0.38535976822166	0.90464051191941	-0.181998333042742	-0.0309680637538253	0.184441460692972	0.982355499096321
380	9.141516	0	0	0	0	0	0	0	0	0	0	0	0	-0.983754272460937	0.811312866210938	9.01605102539063	0.922470583582663	0.383663116318631	-0.0430190144161746	-0.384794905757696	0.90466474693023	-0.183069866894007	-0.031319369846595	0.185430064548175	0.982158229733923
381	9.141516	0	0	0	0	0	0	0	0	0	0	0	0	-1.0298583984375	0.712518310546875	9.03820495605469	0.922012207848768	0.384620732373651	-0.0442761878010888	-0.38584831122426	0.903449270154765	-0.186816747060352	-0.0318523045198865	0.189331213710738	0.981396516302963
382	9.141516	0	0	0	0	0	0	0	0	0	0	0	0	-0.0520916748046875	1.33402587890625	9.24417663574219	0.921947763746978	0.384893205611143	-0.0432381914090382	-0.386010340873137	0.903947894208216	-0.184049507729678	-0.0317543329476568	0.18637442107465	0.981965497106766
383	9.141516	0	0	0	0	0	0	0	0	0	0	0	0	-1.25259521484375	-0.291593627929688	8.56458984375	0.921486929199577	0.386099516757499	-0.0422966012105004	-0.387029710825618	0.903582807949637	-0.18370114892425	-0.0327084431389403	0.185648248948047	0.982071731295607
384	9.141516	0	0	0	0	0	0	0	0	0	0	0	0	-1.33701965332031	0.4358935546875	8.976533203125	0.921114473768027	0.3869164678689	-0.0429391791596725	-0.387952629239021	0.903203469547894	-0.183619852039964	-0.0322627289853581	0.185793270837515	0.982059049563679
385	9.141516	0	0	0	0	0	0	0	0	0	0	0	0	-1.42144409179688	-0.0329315185546875	9.19627624511719	0.920077135645371	0.389189822450583	-0.0446020914699403	-0.390435871850134	0.901784407424497	-0.185323264860823	-0.0319044579210326	0.187925955171	0.981664882196482
386	9.141516	0	0	0	0	0	0	0	0	0	0	0	0	-0.0125738525390625	0.4646337890625	8.76816650390625	0.919913655406406	0.389290361679772	-0.04703063788699	-0.3908919001717	0.900921515719335	-0.188531018387256	-0.0310223947654363	0.191816153692046	0.980940453955187
387	9.141516	0	0	0	0	0	0	0	0	0	0	0	0	-0.0305364990234375	2.98120056152344	8.9334228515625	0.920725318454536	0.387077628646723	-0.0493537978075044	-0.388979270297557	0.900404456765901	-0.194851075221268	-0.0309841126317128	0.198601922541887	0.979590353733178
388	9.141516	0	0	0	0	0	0	0	0	0	0	0	0	-1.04362976074219	1.09093139648437	9.42799438476563	0.92080929427643	0.386989625754269	-0.0484693009307266	-0.388741778161326	0.900666195166706	-0.19411397372652	-0.0314654331944324	0.197583993386357	0.979780838795793
389	9.141516	0	0	0	0	0	0	0	0	0	0	0	0	-0.884959716796875	1.39689514160156	8.8951025390625	0.920521311696804	0.387746025111058	-0.0478908626208606	-0.389380565572535	0.900475456389818	-0.193718165369079	-0.0319889022382456	0.196969470858111	0.97988761482298
390	9.141516	0	0	0	0	0	0	0	0	0	0	0	0	-0.779578857421875	1.79925842285156	9.22621398925781	0.920745712602866	0.387467810523513	-0.0457824041696831	-0.388796579262393	0.90136927587865	-0.190710902823776	-0.0326274834656801	0.193396288253194	0.980578055543048
391	9.141516	0	0	0	0	0	0	0	0	0	0	0	0	-0.501756591796875	0.56761962890625	8.83223327636719	0.920380392579193	0.388562723125697	-0.043805743378177	-0.389618447622257	0.90180774502632	-0.186923129341899	-0.0331270014971897	0.189107908897773	0.981397371386391
392	9.141516	0	0	0	0	0	0	0	0	0	0	0	0	-0.695154418945312	0.47660888671875	9.01724853515625	0.919789526343148	0.390029202536169	-0.0431792588918296	-0.390978514813178	0.901467578868131	-0.185720233696038	-0.0335116126727588	0.187705688295879	0.981653475722183
393	9.141516	0	0	0	0	0	0	0	0	0	0	0	0	-0.563428344726563	0.599952392578125	9.07113647460938	0.919816834705013	0.390075341580211	-0.0421689279485877	-0.390860804975489	0.90167294038243	-0.184969564296442	-0.0341294847186994	0.186620300270857	0.981839111972859
394	9.141516	0	0	0	0	0	0	0	0	0	0	0	0	-0.647254028320313	0.94603271484375	9.21543640136719	0.919897943934919	0.389924708106026	-0.0417910846082998	-0.39063812029082	0.901742272030319	-0.185101955174039	-0.0344910382557924	0.186600098719233	0.981830317029379
395	9.141516	0	0	0	0	0	0	0	0	0	0	0	0	-0.894539794921875	0.389789428710938	9.10825927734375	0.919620739797664	0.390597927706534	-0.0416047329682446	-0.391279332330842	0.901556986869606	-0.184649623658775	-0.0346147226585437	0.186086695650061	0.981923399597603
396	9.141516	0	0	0	0	0	0	0	0	0	0	0	0	-0.62031005859375	0.5891748046875	8.89210876464844	0.91957023477939	0.390584343609215	-0.0428305245722737	-0.39143715533833	0.901148830793574	-0.186300129307553	-0.0341692365793228	0.188081512346997	0.9815588662861
397	9.141516	0	0	0	0	0	0	0	0	0	0	0	0	-0.707129516601563	1.06698120117188	9.44535827636719	0.919572729892459	0.390610201582106	-0.0425401558308986	-0.391416900370083	0.901210192303923	-0.186045691678694	-0.0343337231130937	0.187733480518298	0.981619751100027
398	9.141516	0	0	0	0	0	0	0	0	0	0	0	0	-0.637673950195312	1.00950073242187	8.90947265625	0.919937592748144	0.389808042524779	-0.0420061356440873	-0.390516080851562	0.901515526666996	-0.186458965390954	-0.0348140208118187	0.187934683231512	0.981564332478308
399	9.141516	0	0	0	0	0	0	0	0	0	0	0	0	-0.889151000976563	0.7520361328125	8.97413818359375	0.919834295764438	0.39009404964546	-0.0416113057563222	-0.390728509421518	0.901459210519135	-0.186286133932337	-0.0351582175426974	0.187611098289582	0.981613964620409
400	9.141516	0	0	0	0	0	0	0	0	0	0	0	0	-0.602347412109375	0.680784301757813	9.11664184570312	0.919675712079299	0.390447530820609	-0.04180084075139	-0.391091436581747	0.901192055352356	-0.186816400784891	-0.0352714168110525	0.188158457279723	0.981505130964814
401	9.141516	0	0	0	0	0	0	0	0	0	0	0	0	-0.7807763671875	1.00231567382813	9.3932666015625	0.919223257971138	0.391579254065284	-0.0411617515492482	-0.392172248964961	0.901243963399478	-0.1842830583037	-0.035064642400723	0.185539769919218	0.982010928977694
402	9.141516	0	0	0	0	0	0	0	0	0	0	0	0	-0.523311767578125	0.046702880859375	8.77714782714844	0.9195149615855	0.390936548840458	-0.0407535299223264	-0.391425946965	0.901338423972467	-0.185404351387402	-0.0357486148398899	0.186434064085784	0.981816875127682
403	9.141516	0	0	0	0	0	0	0	0	0	0	0	0	-0.229323120117188	1.43581420898438	9.12143188476563	0.919959010735089	0.38990385453224	-0.0406251497008708	-0.390308230987421	0.901364307903718	-0.187621611923365	-0.0365363297388617	0.188460522810887	0.981400900728678
404	9.141516	0	0	0	0	0	0	0	0	0	0	0	0	-0.928070068359375	0.923280029296875	9.20885009765625	0.919890160286256	0.390228775439863	-0.0390332656490811	-0.390333672863886	0.901386010019249	-0.187464355999123	-0.0379699464987137	0.187682614432671	0.981495552411014
405	9.141516	0	0	0	0	0	0	0	0	0	0	0	0	-1.03045715332031	0.82388671875	8.72086486816406	0.920015895969536	0.39002256141095	-0.0381202407365699	-0.389947698719937	0.901484717870249	-0.187792693439928	-0.0388785728441493	0.187637163261543	0.981468670685297
406	9.141516	0	0	0	0	0	0	0	0	0	0	0	0	-1.05740112304687	0.93884765625	9.20046752929688	0.919810491395921	0.390580729337137	-0.0373544346559211	-0.390380198389333	0.90144671189494	-0.187075188946333	-0.0393949314442672	0.186656153084412	0.981635125641004
407	9.141516	0	0	0	0	0	0	0	0	0	0	0	0	-0.76401123046875	0.70892578125	9.22262145996094	0.919317683639009	0.391718317409103	-0.0375733463347147	-0.391549051741653	0.901007866695962	-0.1867462562736	-0.0392980486642741	0.186390943873821	0.981689400682827
408	9.141516	0	0	0	0	0	0	0	0	0	0	0	0	-0.638871459960938	0.592168579101563	8.96276184082031	0.919152962987286	0.392013267788637	-0.0385153022754233	-0.391889580920631	0.900209639044839	-0.189855634987782	-0.0397540815205856	0.1896001151066	0.981056272266795
409	9.141516	0	0	0	0	0	0	0	0	0	0	0	0	-0.5125341796875	1.5376025390625	9.25794799804688	0.919054513867659	0.392242238549787	-0.0385334508827618	-0.392020602748815	0.899652618126162	-0.192210857443588	-0.0407264970251344	0.191758162788954	0.980596838381538
410	9.141516	0	0	0	0	0	0	0	0	0	0	0	0	-0.923280029296875	1.28193420410156	9.05736511230469	0.918896202410187	0.392861337433795	-0.0359129328496855	-0.392147998275106	0.899701892902964	-0.191719720831351	-0.0430083322736791	0.190253708128262	0.980792439764134
411	9.141516	0	0	0	0	0	0	0	0	0	0	0	0	-1.09392517089844	1.00351318359375	8.84780090332031	0.919114406797918	0.392585792014688	-0.0332430913831938	-0.391416784705499	0.900224755034225	-0.190757152092336	-0.0449622938396199	0.188339550630688	0.981074210139534
412	9.141516	0	0	0	0	0	0	0	0	0	0	0	0	-1.31007568359375	1.3268408203125	8.32628540039063	0.919918369639486	0.390490046366444	-0.0356050121269826	-0.389734113877359	0.900586507244817	-0.192487047483231	-0.0430988825848183	0.190948858748394	0.980653363662526
413	9.141516	0	0	0	0	0	0	0	0	0	0	0	0	-0.27063720703125	1.34659973144531	9.87885681152344	0.920659015424857	0.388963552326955	-0.0330806934348281	-0.388086064968836	0.902836518050458	-0.185136241323868	-0.0421447920143973	0.183285505798254	0.982155914236809
414	9.141516	0	0	0	0	0	0	0	0	0	0	0	0	-1.0346484375	-0.466430053710938	8.91486145019531	0.920347126431401	0.390015003637674	-0.0291455623889379	-0.388584626413518	0.903436942519718	-0.181117859433273	-0.0443075048330362	0.178016818947337	0.983029428444206
415	9.141516	0	0	0	0	0	0	0	0	0	0	0	0	-1.34540222167969	0.488583984375	8.8567822265625	0.920174114174493	0.390486704215969	-0.0282795585845523	-0.38898939986814	0.903680900371568	-0.179019767327124	-0.0443491419692794	0.175729804342301	0.983438960725273
416	9.141516	0	0	0	0	0	0	0	0	0	0	0	0	-1.89685546875	-0.956211547851563	8.61967529296875	0.91964925790882	0.391815983171715	-0.0269346943353615	-0.390040029994408	0.903146087747761	-0.179432213350544	-0.045978445272957	0.17552031083922	0.983401547209066
417	9.141516	0	0	0	0	0	0	0	0	0	0	0	0	-1.0106982421875	0.199385375976563	9.24058410644531	0.919339181365549	0.392484924498448	-0.0277678527720497	-0.390821323188814	0.90271447027917	-0.179903525506153	-0.0455429791193761	0.176244628826087	0.983292259637432
418	9.141516	0	0	0	0	0	0	0	0	0	0	0	0	-1.07296875	0.43828857421875	9.25435546875	0.919385032340447	0.39238848118795	-0.0276123548319964	-0.390706325941272	0.902794574650046	-0.179751280529279	-0.0456040478228348	0.176048958569644	0.983324481038033
419	9.141516	0	0	0	0	0	0	0	0	0	0	0	0	-1.06458618164063	0.236508178710938	9.19807250976563	0.919309080293916	0.392556183826585	-0.0277571149196714	-0.390885812692123	0.902671103604766	-0.179980999422086	-0.0455971087370048	0.176308029472462	0.983278385005164
420	9.141516	0	0	0	0	0	0	0	0	0	0	0	0	-1.26337280273438	0.242495727539063	9.11005554199219	0.919071082666104	0.393090180489094	-0.0280794410558184	-0.3914775534886	0.902460636704214	-0.179750171944298	-0.0453174372789975	0.176195656026124	0.983311456597546
421	9.141516	0	0	0	0	0	0	0	0	0	0	0	0	-1.274150390625	1.02566711425781	9.12203063964844	0.919072922133554	0.393096848249878	-0.0279254668162244	-0.391465089500191	0.902500846437428	-0.179575348760161	-0.0453877461821891	0.175974685894701	0.983347783045634
422	9.141516	0	0	0	0	0	0	0	0	0	0	0	0	-0.483195190429688	0.756227416992188	9.2687255859375	0.919116054524722	0.392995545063195	-0.0279317001879949	-0.391368041326165	0.902548685052442	-0.179546448972489	-0.0453512353021504	0.175955598577003	0.983352883143167
423	9.141516	0	0	0	0	0	0	0	0	0	0	0	0	-1.17176330566406	0.0772393798828125	9.01724853515625	0.919035075111339	0.39326281988695	-0.0268120347914948	-0.391664243127281	0.903398097576266	-0.174559439593274	-0.0444257962295517	0.170927562991311	0.984281523162567
424	9.141516	0	0	0	0	0	0	0	0	0	0	0	0	-1.13344299316406	0.130528564453125	9.206455078125	0.918541030784661	0.394376274201189	-0.027381181717414	-0.392864917528278	0.902915357230953	-0.174358866284453	-0.0440401105874211	0.170912878460605	0.984301405381379
425	9.141516	0	0	0	0	0	0	0	0	0	0	0	0	-1.23343505859375	-0.676593017578125	9.36093383789063	0.91775231315561	0.396213083024983	-0.0273108867919834	-0.394783104069384	0.902614242921694	-0.171562901631559	-0.0433242707828859	0.168234126486679	0.984794540118088
426	9.141516	0	0	0	0	0	0	0	0	0	0	0	0	-0.772393798828125	0.103584594726563	8.70649475097656	0.917490737062081	0.396790612858313	-0.027712036244287	-0.395373679422801	0.902161090034644	-0.172583374770516	-0.0434787422191234	0.169300257457064	0.984605008010835
427	9.141516	0	0	0	0	0	0	0	0	0	0	0	0	-0.5029541015625	0.245489501953125	9.13220947265625	0.917374620182249	0.396986596645116	-0.0287306165893468	-0.395596220698514	0.901436686215209	-0.175828128905464	-0.0439025786774385	0.172665986313089	0.984001534935795
428	9.141516	0	0	0	0	0	0	0	0	0	0	0	0	-0.693358154296875	0.27542724609375	9.26333679199219	0.91733936157508	0.397063365654409	-0.0287954746482604	-0.395707913113411	0.901497499751968	-0.175264101972938	-0.0436319058081944	0.172171256591058	0.984100256680894
429	9.141516	0	0	0	0	0	0	0	0	0	0	0	0	-0.677191772460938	0.295784912109375	9.14119079589844	0.917168087450863	0.397434430660248	-0.0291302709821175	-0.396092744530783	0.901163813298246	-0.176108828091712	-0.0437405657462169	0.173059686026321	0.983939585533925
430	9.141516	0	0	0	0	0	0	0	0	0	0	0	0	-0.691561889648438	0.313148803710938	9.09508666992187	0.917001736511976	0.397801305560463	-0.0293587555664819	-0.396478790826767	0.900932681182244	-0.176422426018685	-0.0437308090316927	0.173419794925967	0.983876613742429
431	9.141516	0	0	0	0	0	0	0	0	0	0	0	0	-0.852626953125	0.299976196289063	9.053173828125	0.916639129318092	0.398639792150779	-0.029309089323181	-0.397286142970613	0.900542566502672	-0.17659786669242	-0.0440048543515839	0.17352060981556	0.983846619531079
432	9.141516	0	0	0	0	0	0	0	0	0	0	0	0	-0.6849755859375	0.731079711914063	8.93102783203125	0.916574086605298	0.398788750415431	-0.0293168263248741	-0.397385793219615	0.90028848465493	-0.177665910475101	-0.0444575652828727	0.174494059898406	0.983654079414756
433	9.141516	0	0	0	0	0	0	0	0	0	0	0	0	-0.711919555664063	0.527503051757813	9.32021850585938	0.916194107739717	0.399660076975247	-0.0293288222600875	-0.398233923489303	0.899870992600523	-0.1778818114886	-0.044700102073041	0.174653999519877	0.983614701662379
434	9.141516	0	0	0	0	0	0	0	0	0	0	0	0	-0.573607177734375	0.635278930664062	8.98551452636719	0.916138846963766	0.399777768441491	-0.0294507885097155	-0.398365813807402	0.899790923451433	-0.177991495482186	-0.0446574906759021	0.174797110772348	0.983591215186559
435	9.141516	0	0	0	0	0	0	0	0	0	0	0	0	-0.64426025390625	0.423319702148438	9.20226379394531	0.916048609862276	0.399977425140819	-0.029546636815573	-0.398568513055674	0.899657006462137	-0.178214508736452	-0.0446999414986195	0.175029512086694	0.983547957716711
436	9.141516	0	0	0	0	0	0	0	0	0	0	0	0	-0.592168579101563	0.729283447265625	9.16394348144531	0.915972525313401	0.400160525406855	-0.0294259541408644	-0.39871639436471	0.89954433292675	-0.178452318461192	-0.0449396232271251	0.175190031124716	0.983508456119583
437	9.141516	0	0	0	0	0	0	0	0	0	0	0	0	-0.526904296875	0.434696044921875	9.50523376464844	0.915887851276665	0.400400475203269	-0.0287906814926215	-0.398865275141598	0.899582405258593	-0.177926918804833	-0.0453424323347421	0.174444706443505	0.983622441907366
438	9.141516	0	0	0	0	0	0	0	0	0	0	0	0	-0.561632080078125	0.51971923828125	9.08251281738281	0.915447911293724	0.401398493022732	-0.0288854895585804	-0.399850197974368	0.899094386061108	-0.178182782931625	-0.0455515190506047	0.174666925181844	0.983573344677306
439	9.141516	0	0	0	0	0	0	0	0	0	0	0	0	-0.698148193359375	0.784368896484375	9.22501647949219	0.91458657227487	0.403298481487471	-0.029694050656715	-0.401938336530013	0.898513768640549	-0.176404595152291	-0.0444631919905628	0.173272451339668	0.98386974857689
440	9.141516	0	0	0	0	0	0	0	0	0	0	0	0	-0.470022583007813	0.46702880859375	9.12741943359375	0.913472587998377	0.405576046286365	-0.0328009398381596	-0.404717742997692	0.897277949545695	-0.176340096863783	-0.0420877592466121	0.174356966989547	0.983782632792328
441	9.141516	0	0	0	0	0	0	0	0	0	0	0	0	-0.499960327148438	0.451461181640625	9.31423095703125	0.913008575402584	0.4066791163629	-0.0320536668048277	-0.405670475662205	0.896843845941888	-0.176359238975911	-0.0429744856553753	0.174020723795912	0.983803832718801
442	9.141516	0	0	0	0	0	0	0	0	0	0	0	0	-0.312550048828125	0.453856201171875	9.2591455078125	0.912643619125031	0.407520852355621	-0.0317549896191584	-0.406489564168501	0.896670036639586	-0.175354154826357	-0.0429867269336361	0.172943922379804	0.983993161063339
443	9.141516	0	0	0	0	0	0	0	0	0	0	0	0	-0.392184448242188	0.533490600585938	9.23160278320313	0.912444991040799	0.408059609447021	-0.0305203778237091	-0.406833186588156	0.896632562676772	-0.174747835002932	-0.0439419687210732	0.171864489309543	0.984140081847745
444	9.141516	0	0	0	0	0	0	0	0	0	0	0	0	-0.272433471679688	0.641266479492188	9.12622192382813	0.912423118311966	0.408123469007657	-0.0303197495870846	-0.406923111114981	0.89686011949405	-0.173365243637887	-0.0435618504011498	0.170520263037198	0.984390778646038
445	9.141516	0	0	0	0	0	0	0	0	0	0	0	0	-0.277822265625	0.162262573242188	9.37650146484375	0.911842349752686	0.40944585653637	-0.0299603031142659	-0.408193363497376	0.896419127545452	-0.172658407751694	-0.0438372808714105	0.169666845128475	0.984526004973942
446	9.141516	0	0	0	0	0	0	0	0	0	0	0	0	-0.2538720703125	0.768202514648438	8.89570129394531	0.911088080013723	0.411066056068922	-0.030711691663763	-0.409898373405499	0.895574758131397	-0.17300050889352	-0.0436100210551952	0.170207373946702	0.984442794639553
447	9.141516	0	0	0	0	0	0	0	0	0	0	0	0	-0.135917358398437	0.44068359375	9.36572387695313	0.910112798848213	0.413062365092349	-0.0327746230639998	-0.412212159815304	0.894513111922729	-0.172995456295008	-0.0421405822583733	0.170955477077018	0.984377161551554
448	9.141516	0	0	0	0	0	0	0	0	0	0	0	0	-0.001197509765625	0.77838134765625	9.16573974609375	0.90904159816981	0.415315410021355	-0.0340071021357695	-0.414596859873607	0.893225645495794	-0.17394651480144	-0.0418666523598818	0.172223855570061	0.984167733159729
449	9.141516	0	0	0	0	0	0	0	0	0	0	0	0	-0.049097900390625	0.940643920898438	8.67176696777344	0.908344841753011	0.416686393282571	-0.0358063976666136	-0.416245957730585	0.892420676046094	-0.174139712984663	-0.0406072793184265	0.17308317832359	0.984069744605411
450	9.141516	0	0	0	0	0	0	0	0	0	0	0	0	0.049097900390625	1.11967163085938	9.12203063964844	0.908374649410133	0.416586676393446	-0.0362082498952978	-0.416230366424459	0.892489572444105	-0.173823603531566	-0.0400971118059435	0.1729679280387	0.984110927433905
451	9.141516	0	0	0	0	0	0	0	0	0	0	0	0	0.182620239257813	0.987945556640625	8.75020385742187	0.908734985229254	0.415920191505615	-0.0348011626001322	-0.415283764997254	0.892702591603123	-0.174989935352789	-0.0417147593795476	0.173471834148949	0.983954979461411
452	9.141516	0	0	0	0	0	0	0	0	0	0	0	0	-0.0940045166015625	0.915496215820313	8.91007141113281	0.908569603785568	0.41628305625664	-0.0347806289559077	-0.415660203175432	0.892636105386998	-0.174434454325087	-0.0415676625887949	0.172942766351078	0.984054332338281
453	9.141516	0	0	0	0	0	0	0	0	0	0	0	0	-0.374820556640625	0.839454345703125	9.29447204589844	0.908339593404033	0.416815492744127	-0.0344097088489159	-0.416115174650115	0.892405239499698	-0.174530942641672	-0.0420397963898537	0.172851767482885	0.98405026395888
454	9.141516	0	0	0	0	0	0	0	0	0	0	0	0	-0.586181030273437	0.981359252929688	8.90707763671875	0.908401552914699	0.416686623418153	-0.0343347713919984	-0.416050115738592	0.892777479921679	-0.172773471744366	-0.0413390838803564	0.171232675646545	0.98436296706797
455	9.141516	0	0	0	0	0	0	0	0	0	0	0	0	-0.220940551757813	0.75922119140625	9.16514099121094	0.907804435659021	0.417996951883674	-0.0342002165748273	-0.417342264957837	0.892299391274166	-0.172125623344162	-0.0414311534677738	0.170529600209791	0.984481139979136
456	9.141516	0	0	0	0	0	0	0	0	0	0	0	0	-0.213755493164063	0.834664306640625	9.08850036621094	0.907823604138635	0.417960775082963	-0.0341334771271286	-0.417335135562339	0.892485266801685	-0.171176613960812	-0.0410814848064634	0.169643269934216	0.984648908277526
457	9.141516	0	0	0	0	0	0	0	0	0	0	0	0	-0.0017962646484375	0.436492309570313	9.14238830566406	0.907781422948284	0.418144178431402	-0.0329899104866603	-0.417348945976095	0.892599635108688	-0.170545444666458	-0.0418658027826131	0.168586290806119	0.984797399016469
458	9.141516	0	0	0	0	0	0	0	0	0	0	0	0	-0.0814306640625	0.293389892578125	9.13161071777344	0.907715412571741	0.418346685832574	-0.0322301137543019	-0.417499590692957	0.892880936925172	-0.168694173719309	-0.0417949943285915	0.16658236079648	0.98514135814133
459	9.141516	0	0	0	0	0	0	0	0	0	0	0	0	0.02155517578125	0.1389111328125	8.80528930664063	0.907427506130088	0.418880470432712	-0.0333837177168591	-0.418222206181389	0.892567432666649	-0.16856323561097	-0.0408106282149779	0.166920728589762	0.985125353948299
460	9.141516	0	0	0	0	0	0	0	0	0	0	0	0	-0.0760418701171875	0.66342041015625	9.27471313476562	0.907149531059989	0.41926728247005	-0.0359815806743023	-0.419105649371776	0.892485621884305	-0.166792893716869	-0.0378177598795027	0.166386179053323	0.98533520005008
461	9.141516	0	0	0	0	0	0	0	0	0	0	0	0	-1.16817077636719	1.24720642089844	8.50950439453125	0.90683394754748	0.420228301580185	-0.0325632634495867	-0.419435902790854	0.892106995190275	-0.167984024783909	-0.0415417263179457	0.1659918181225	0.98525174513467
462	9.141516	0	0	0	0	0	0	0	0	0	0	0	0	-0.340691528320313	0.6370751953125	9.57588684082031	0.907483297377058	0.419161205583543	-0.0278917320260468	-0.417289730780843	0.891798065843813	-0.174829889727373	-0.0484081146763012	0.170294138158024	0.984203516018157
463	9.141516	0	0	0	0	0	0	0	0	0	0	0	0	-0.975371704101563	0.20357666015625	9.92316467285156	0.906955167641221	0.420189847695419	-0.0295434558335049	-0.418626292827324	0.891353507534653	-0.173899256925738	-0.0467370393000828	0.170086497110654	0.984320188078092
464	9.141516	0	0	0	0	0	0	0	0	0	0	0	0	-0.81191162109375	1.09392517089844	9.80820373535156	0.90693091631403	0.42046215029401	-0.0262277182372181	-0.418326947977553	0.891470132989802	-0.174021741696063	-0.0497883282464834	0.168797458977564	0.984392472651604
465	9.141516	0	0	0	0	0	0	0	0	0	0	0	0	-0.276026000976562	0.489781494140625	8.39574096679688	0.90696180451641	0.420182381557208	-0.029445736147224	-0.418805308769888	0.892107939369118	-0.169545090936735	-0.044971085093624	0.166102952241975	0.985082438561364
466	9.141516	0	0	0	0	0	0	0	0	0	0	0	0	-0.644859008789063	0.09819580078125	9.63695983886719	0.907098053861928	0.419885116889188	-0.0294891385912981	-0.418455150050172	0.892001965274761	-0.170961344585415	-0.0454797545770818	0.16741858487312	0.984836336333449
