// Start Time: Unknown
// Update Rate: 100.0Hz
// Filter Profile: human (46.1)
// Option Flags: AHS Disabled ICC Disabled 
// Firmware Version: 4.0.2
PacketCounter	SampleTimeFine	Acc_X	Acc_Y	Acc_Z	Mat[1][1]	Mat[2][1]	Mat[3][1]	Mat[1][2]	Mat[2][2]	Mat[3][2]	Mat[1][3]	Mat[2][3]	Mat[3][3]
2	9141516	-8.11912E+13	-6.31686E+14	8.99869E+14	7.4383E+13	6.56513E+14	1.25332E+14	-6.60984E+14	7.50361E+14	-7.67668E+14	-9.90843E+14	-7.71325E+14	9.92085E+14
3	9141516	-8.41849E+14	-6.37674E+14	8.9933E+14	7.43593E+14	6.5649E+14	1.26852E+14	-6.61034E+13	7.50312E+14	-8.13174E+14	-1.00517E+14	-7.78067E+14	9.91888E+14
4	9141516	-8.07122E+13	-6.43063E+14	9.00348E+14	7.4347E+14	6.5656E+14	1.27208E+14	-6.6109E+14	7.50258E+14	-8.56075E+14	-1.01059E+14	-7.7731E+14	9.91839E+14
5	9141516	-8.31072E+13	-6.38871E+14	9.02803E+14	7.43309E+14	6.56717E+14	1.27338E+12	-6.61204E+14	7.50151E+14	-9.09352E+14	-1.01494E+13	-7.74369E+14	9.91818E+14
6	9141516	-8.25683E+14	-6.36476E+14	9.03042E+14	7.43348E+14	6.5671E+14	1.27148E+14	-6.61146E+14	7.50198E+14	-9.44257E+14	-1.01587E+14	-7.70442E+14	9.91839E+14
7	9141516	-7.95146E+11	-6.28094E+14	8.99569E+12	7.43528E+14	6.56558E+14	1.26875E+14	-6.60951E+14	7.50367E+14	-9.64189E+14	-1.01534E+14	-7.66895E+14	9.91872E+14
8	9141516	-8.41251E+14	-6.55637E+14	8.99569E+12	7.43383E+14	6.56679E+14	1.27101E+14	-6.61043E+14	7.5028E+14	-1.01017E+14	-1.01995E+14	-7.65096E+14	9.91838E+14
9	9141516	-8.19695E+14	-6.52643E+14	9.02204E+14	7.43654E+14	6.56461E+14	1.26638E+14	-6.60777E+14	7.50513E+14	-1.02126E+14	-1.01747E+14	-7.60846E+13	9.91896E+14
10	9141516	-8.16702E+13	-6.33483E+14	9.00887E+14	7.43677E+14	6.56441E+14	1.26603E+13	-6.60721E+14	7.50558E+13	-1.05348E+12	-1.01939E+14	-7.5815E+14	9.91897E+14
11	9141516	-8.26282E+13	-6.62223E+14	9.00887E+14	7.43764E+14	6.56303E+14	1.26814E+13	-6.60575E+14	7.50683E+14	-1.07516E+14	-1.02254E+14	-7.57738E+14	9.91868E+14
12	9141516	-8.30473E+14	-6.42464E+14	9.00288E+14	7.43905E+14	6.56258E+12	1.26217E+13	-6.60456E+13	7.50784E+14	-1.10245E+14	-1.01997E+14	-7.51595E+14	9.91941E+14
13	9141516	-8.11313E+14	-6.4905E+13	9.02623E+14	7.43879E+13	6.56338E+14	1.25957E+13	-6.60483E+14	7.50755E+14	-1.1345E+14	-1.02009E+14	-7.47531E+14	9.91971E+13
14	9141516	-8.17899E+14	-6.47254E+14	9.01785E+14	7.43853E+14	6.56384E+14	1.25868E+13	-6.60489E+14	7.50745E+14	-1.16833E+14	-1.02163E+14	-7.44436E+14	9.91978E+14
15	9141516	-8.53226E+14	-6.47853E+14	9.02862E+14	7.43825E+14	6.56436E+14	1.25761E+14	-6.60494E+14	7.50734E+14	-1.20584E+14	-1.02329E+14	-7.40951E+14	9.91987E+14
16	9141516	-8.16103E+14	-6.35878E+14	8.99988E+14	7.43869E+14	6.56415E+14	1.25612E+14	-6.60432E+14	7.50784E+14	-1.23448E+14	-1.02411E+14	-7.37754E+14	9.92003E+14
17	9141516	-8.47837E+12	-6.46655E+12	8.98851E+14	7.43985E+14	6.56309E+14	1.25477E+14	-6.60291E+12	7.50905E+14	-1.25835E+13	-1.0248E+13	-7.34891E+14	9.92017E+14
18	9141516	-8.16103E+14	-6.46057E+14	9.01845E+14	7.44042E+14	6.56309E+14	1.25143E+14	-6.60238E+14	7.50947E+14	-1.28543E+14	-1.02412E+14	-7.30597E+14	9.92056E+14
19	9141516	1.97589E+14	-1.94835E+14	8.69093E+14	7.52666E+14	6.45774E+14	1.28338E+12	-6.5114E+14	7.58958E+14	-1.91631E+14	-9.75267E+13	-8.34215E+14	9.91731E+13
20	9141516	-1.1059E+14	-2.25012E+14	8.6083E+14	7.52061E+14	6.46679E+14	1.27321E+14	-6.5195E+14	7.58262E+14	-3.63312E+13	-9.67775E+14	-8.27336E+14	9.91862E+13
21	9141516	-1.36037E+11	-3.05964E+14	9.68965E+14	7.54618E+14	6.4156E+14	1.37668E+14	-6.48417E+14	7.61257E+14	6.64655E+14	-1.00537E+14	-9.42822E+13	9.90456E+13
22	9141516	-3.61109E+14	-4.45474E+12	1.13949E+14	7.59616E+13	6.3278E+12	1.50243E+13	-6.39572E+13	7.68721E+14	-4.00754E+14	-1.18031E+14	-9.3047E+13	9.88641E+13
23	9141516	-2.01301E+14	-1.47773E+14	8.76098E+13	7.57543E+14	6.32914E+14	1.5984E+14	-6.41578E+14	7.6705E+14	3.41659E+14	-1.20443E+14	-1.05138E+14	9.87137E+13
24	9141516	-2.98E+14	-3.44823E+14	8.99629E+14	7.55059E+12	6.30272E+14	1.80672E+14	-6.43171E+14	7.65525E+14	1.73923E+14	-1.27347E+14	-1.29335E+14	9.8339E+14
25	9141516	-1.71723E+14	-5.10498E+14	1.02046E+14	7.58571E+14	6.19097E+14	2.03198E+14	-6.38598E+14	7.68336E+14	4.30492E+14	-1.29472E+14	-1.62417E+14	9.78191E+14
26	9141516	8.84361E+14	-3.93142E+14	1.14883E+14	7.61429E+14	6.07316E+14	2.26698E+14	-6.35646E+14	7.68103E+14	7.72753E+14	-1.27197E+14	-2.0294E+14	9.70895E+14
27	9141516	-3.00395E+14	-6.04084E+14	6.94316E+14	7.6414E+14	5.92843E+14	2.54218E+14	-6.32344E+13	7.66298E+14	1.13705E+14	-1.27398E+14	-2.47639E+14	9.6044E+14
28	9141516	-6.2031E+13	-8.24426E+14	8.41071E+14	7.70932E+14	5.69354E+14	2.85481E+14	-6.22312E+14	7.68787E+14	1.47288E+14	-1.35615E+14	-2.91207E+14	9.46999E+13
29	9141516	-2.17827E+14	-5.47861E+14	2.79918E+14	7.78188E+14	5.47745E+14	3.07244E+14	-6.13412E+14	7.67848E+14	1.84755E+14	-1.34718E+14	-3.32242E+14	9.33524E+14
30	9141516	-1.69088E+13	-5.7223E+14	2.15193E+14	7.79488E+14	5.37291E+14	3.22052E+14	-6.14097E+14	7.56898E+14	2.23586E+14	-1.2363E+14	-3.72053E+14	9.19941E+14
31	9141516	-3.20214E+14	-8.29335E+14	1.61005E+14	7.82099E+14	5.27188E+14	3.32255E+14	-6.11058E+14	7.53356E+14	2.4303E+14	-1.22184E+14	-3.93101E+14	9.11341E+14
32	9141516	-3.99789E+14	-8.26701E+14	-8.46639E+14	7.80734E+13	5.32334E+13	3.27223E+14	-6.15989E+14	7.43618E+14	2.59978E+14	-1.04934E+13	-4.0454E+14	9.0848E+13
33	9141516	-3.32249E+14	-8.62686E+13	-7.30481E+13	7.72748E+14	5.64552E+14	2.90072E+14	-6.31681E+14	7.2866E+14	2.64639E+14	-6.19611E+14	-3.87732E+14	9.19687E+14
34	9141516	-2.36628E+12	-7.70717E+13	-1.11249E+14	7.64118E+14	5.91587E+14	2.57192E+14	-6.44754E+13	7.12999E+14	2.75543E+14	-2.03699E+13	-3.76373E+14	9.26244E+14
35	9141516	5.50256E+14	-7.48923E+14	9.61002E+14	7.57716E+14	6.11287E+14	2.28459E+14	-6.52478E+14	7.03337E+13	2.82117E+14	1.17704E+14	-3.62829E+14	9.31781E+14
36	9141516	-2.05373E+14	-73575	1.80644E+14	7.51384E+14	6.26912E+14	2.05919E+14	-6.59383E+14	7.01417E+14	2.70608E+14	2.52126E+14	-3.3911E+14	9.40409E+14
37	9141516	3.68833E+12	-7.68382E+14	5.50854E+12	7.34761E+14	6.50022E+14	1.93904E+14	-6.78052E+14	6.95688E+14	2.37198E+14	1.92876E+14	-3.05761E+14	9.51913E+14
38	9141516	3.28896E+14	-2.24294E+14	5.97018E+14	7.21152E+14	6.70968E+14	1.72458E+14	-6.92599E+14	6.92633E+14	2.01412E+13	1.56903E+14	-2.64693E+14	9.64205E+14
39	9141516	3.28297E+14	-3.18418E+14	9.02623E+14	7.07493E+13	6.88422E+14	1.59778E+14	-7.06713E+14	6.88098E+14	1.64554E+14	3.33992E+14	-2.29338E+14	9.73341E+14
40	9141516	3.12251E+14	1.2484E+14	8.3682E+13	6.84114E+14	7.13526E+14	1.51223E+14	-7.29156E+14	6.74127E+14	1.17831E+13	-1.78682E+14	-1.90875E+14	9.81452E+14
41	9141516	-6.09532E+14	3.65839E+14	1.06435E+13	6.57742E+14	7.39504E+14	1.43208E+14	-7.51932E+14	6.55834E+14	6.69325E+14	-4.44239E+13	-1.51707E+14	9.87427E+13
42	9141516	2.11001E+14	4.32481E+14	9.2819E+14	6.37027E+13	7.57898E+14	1.40668E+14	-7.6765E+14	6.40326E+14	2.63871E+14	-7.00748E+14	-1.24793E+14	9.89705E+14
43	9141516	-9.63397E+14	4.2775E+13	7.84249E+14	6.1166E+14	7.78626E+14	1.40052E+14	-7.84425E+14	6.19888E+14	-2.0415E+14	-1.02712E+14	-9.73736E+14	9.89934E+14
44	9141516	-2.7417E+14	2.48783E+14	1.14117E+14	5.87067E+14	7.94416E+14	1.5574E+14	-7.96639E+14	6.01128E+14	-6.3344E+14	-1.43941E+14	-8.68812E+14	9.85765E+14
45	9141516	-4.69903E+13	4.97206E+12	7.81555E+14	5.69145E+14	8.03521E+14	1.74435E+14	-8.00587E+14	5.89907E+14	-1.05213E+14	-1.87442E+14	-7.97686E+14	9.79031E+14
46	9141516	-5.49717E+14	4.45833E+14	6.74378E+14	5.45615E+14	8.1532E+14	1.93798E+13	-8.05851E+14	5.73911E+14	-1.45704E+14	-2.30018E+14	-7.6674E+14	9.70161E+14
47	9141516	-9.55673E+14	2.00523E+14	5.05469E+14	5.09588E+14	8.31481E+14	2.21269E+14	-8.17914E+14	5.47951E+14	-1.75403E+14	-2.67089E+14	-9.1596E+14	9.59309E+14
48	9141516	-1.05417E+14	3.06323E+14	3.63205E+14	4.69461E+14	8.45378E+14	2.54837E+14	-8.3053E+14	5.20765E+14	-1.97546E+14	-2.99712E+14	-1.1891E+14	9.4659E+14
49	9141516	-8.64901E+14	2.01421E+14	3.96855E+14	4.29454E+14	8.53872E+14	2.94063E+14	-8.43331E+14	4.9566E+14	-2.07638E+12	-3.23051E+14	-1.58822E+14	9.3296E+14
50	9141516	-8.25563E+14	-1.39151E+14	-2.39203E+14	3.89643E+14	8.57687E+14	3.35487E+14	-8.56318E+14	4.71472E+14	-2.1079E+14	-3.38964E+13	-2.05151E+14	9.18159E+14
51	9141516	-6.38991E+12	-5.68817E+14	2.58662E+11	3.5255E+13	8.56286E+14	3.7747E+14	-8.71992E+14	4.46992E+14	-1.9957E+14	-3.39615E+14	-2.58792E+14	9.04261E+14
52	9141516	-6.157E+14	-5.14151E+14	-3.32309E+14	3.24808E+14	8.48369E+14	4.18054E+14	-8.83986E+13	4.29471E+14	-1.84724E+14	-3.36256E+14	-3.09554E+13	8.89442E+14
53	9141516	-4.83495E+14	-3.36141E+14	-3.76737E+14	2.9384E+14	8.383E+14	4.5925E+14	-8.94787E+14	4.10217E+14	-1.76288E+14	-3.36175E+14	-3.59131E+14	8.70639E+14
54	9141516	-4.78645E+14	-1.21667E+12	-8.59573E+14	2.63398E+13	8.27341E+14	4.96113E+14	-9.10365E+14	3.83316E+14	-1.55901E+14	-3.19151E+14	-4.1058E+14	8.54147E+13
55	9141516	-5.87858E+14	-2.00643E+14	-1.05668E+13	2.38103E+14	8.11442E+14	5.33731E+14	-9.23414E+14	3.59452E+14	-1.34537E+14	-3.0102E+14	-4.60822E+14	8.34884E+14
56	9141516	-3.13328E+14	6.2989E+13	-1.0762E+14	2.16255E+14	8.00064E+13	5.59581E+14	-9.38277E+14	3.2877E+14	-1.07455E+14	-2.69944E+14	-5.01805E+13	8.2178E+14
57	9141516	-5.93546E+14	-9.63397E+14	-1.08291E+14	1.97966E+14	7.92951E+13	5.76228E+14	-9.51674E+14	2.96296E+13	-8.07823E+13	-2.34791E+14	-5.32389E+14	8.13287E+14
58	9141516	-5.0511E+14	-8.83163E+14	-1.14135E+14	1.83761E+14	7.96948E+14	5.75419E+14	-9.63462E+14	2.62076E+14	-5.5288E+14	-1.94865E+14	-5.44234E+14	8.15988E+12
59	9141516	-5.54088E+14	-2.15791E+14	-1.0013E+14	1.6926E+14	8.04669E+14	5.69086E+14	-9.72689E+14	2.2944E+14	-3.51188E+14	-1.5883E+14	-5.47599E+13	8.21528E+14
60	9141516	-4.77447E+14	-4.91398E+14	-7.15273E+14	1.52803E+14	8.21179E+14	5.49833E+14	-9.8002E+14	1.97595E+14	-2.27533E+14	-1.27329E+13	-5.35371E+14	8.34964E+14
61	9141516	-3.13269E+12	-4.64754E+14	-8.23108E+14	1.34264E+14	8.38745E+14	5.27712E+14	-9.86145E+14	1.65446E+14	-1.20589E+14	-9.74224E+14	-5.18782E+14	8.49338E+14
62	9141516	-9.67588E+11	-6.19951E+14	-6.31866E+14	1.15517E+14	8.54132E+14	5.07064E+13	-9.90912E+14	1.34507E+14	-8.26086E+14	-6.89091E+14	-5.02361E+14	8.61908E+14
63	9141516	1.80644E+14	-2.46747E+14	-6.9713E+14	9.52342E+14	8.76638E+14	4.71632E+14	-9.94619E+14	1.03209E+12	9.00058E+14	-4.07864E+14	-4.69952E+14	8.81749E+14
64	9141516	7.2611E+14	-1.44539E+14	-3.10754E+14	6.50307E+14	8.97588E+13	4.36012E+14	-9.97643E+14	6.80646E+14	8.67731E+14	-2.18883E+14	-4.35549E+13	8.99899E+14
65	9141516	1.08668E+14	3.02371E+14	-1.0556E+14	4.03669E+14	9.15528E+14	4.00225E+14	-9.99007E+14	4.45363E+14	-1.11799E+14	-1.88481E+14	-3.99782E+14	9.16416E+14
66	9141516	6514453125	-5.05289E+14	9.21544E+14	1.13016E+14	9.30885E+14	3.65138E+14	-9.99335E+14	2.31791E+14	-2.81618E+14	-3.4679E+14	-3.64576E+14	9.30527E+14
67	9141516	1.0025E+14	4.40863E+14	1.96332E+14	-1.27829E+14	9.4628E+13	3.23097E+13	-9.99537E+13	-3.16815E+14	-3.02665E+14	-2.7617E+14	-3.23334E+14	9.45882E+14
68	9141516	3.76677E+14	4.70921E+14	5.45526E+14	-5.19556E+14	9.59271E+14	2.77667E+14	-9.97324E+14	-3.552E+13	-6.39012E+14	-5.14358E+14	-2.80244E+14	9.5855E+14
69	9141516	9.46093E+14	1.91302E+14	1.18847E+14	-8.45934E+14	9.66289E+14	2.43164E+14	-9.9471E+14	-6.76221E+13	-7.73281E+14	-5.82781E+14	-2.48419E+14	9.66898E+14
70	9141516	4.22122E+14	9.23579E+14	3.22609E+14	-1.15097E+14	9.74436E+14	1.92942E+13	-9.91326E+14	-1.00269E+14	-8.49633E+14	-6.34452E+14	-2.01047E+13	9.77525E+14
71	9141516	4.64933E+14	6.22945E+14	9.05198E+14	-1.44704E+14	9.78241E+14	1.48676E+14	-9.85954E+14	-1.29888E+14	-1.04991E+14	-8.33955E+14	-1.6178E+14	9.83297E+14
72	9141516	1.06039E+14	8.19516E+14	4.73675E+14	-1.74199E+14	9.79848E+14	9.77363E+13	-9.7915E+14	-1.61828E+14	-1.22787E+14	-1.04496E+14	-1.17088E+14	9.87609E+14
73	9141516	6.02347E+14	9.05198E+14	5.71871E+14	-1.9507E+14	9.7901E+14	5.90458E+14	-9.7317E+14	-1.85714E+14	-1.35832E+14	-1.22016E+14	-8.39583E+14	9.88971E+14
74	9141516	-2.41717E+14	8.4167E+14	5.09241E+14	-2.24323E+14	9.73909E+14	3.43491E+14	-9.65415E+14	-2.17285E+14	-1.44087E+14	-1.32864E+13	-6.54833E+14	9.88969E+14
75	9141516	-4.16075E+14	1.13584E+14	1.30529E+14	-2.56287E+14	9.66407E+14	1.93592E+14	-9.56138E+14	-2.50523E+14	-1.51784E+14	-1.41836E+14	-5.74105E+14	9.88224E+14
76	9141516	-3.35303E+11	1.07686E+14	2.63033E+14	-2.91057E+14	9.56562E+14	1.65729E+14	-9.44961E+14	-2.84735E+14	-1.61166E+14	-1.49446E+14	-6.25693E+14	9.86788E+13
77	9141516	-5.54387E+14	9.69863E+14	2.27527E+13	-3.235E+13	9.45983E+14	2.15405E+14	-9.33045E+14	-3.15123E+14	-1.73561E+14	-1.57398E+14	-7.62453E+14	9.84587E+14
78	9141516	-7.37067E+14	7.8389E+14	2.9836E+14	-3.5425E+13	9.34484E+13	3.53096E+14	-9.21477E+14	-3.42388E+14	-1.83442E+14	-1.59334E+14	-9.75212E+14	9.82396E+13
79	9141516	-8.59992E+14	6.31447E+14	2.54052E+14	-3.82931E+14	9.21915E+14	5.86243E+14	-9.09661E+14	-3.65268E+14	-1.97727E+14	-1.60874E+14	-1.29044E+13	9.78503E+14
80	9141516	-8.3191E+14	5.94204E+14	2.44771E+13	-4.0995E+13	9.08236E+14	8.3953E+14	-8.97566E+14	-3.85331E+14	-2.14231E+14	-1.62223E+14	-1.63177E+14	9.73168E+14
81	9141516	-6.73779E+14	1.09872E+14	2.82193E+14	-4.28758E+14	8.96395E+14	1.12437E+14	-8.87872E+14	-3.95112E+14	-2.35733E+14	-1.66885E+14	-2.00902E+14	9.65292E+14
82	9141516	-8.35982E+14	-3.33506E+14	2.58243E+14	-4.41389E+14	8.85408E+14	1.45701E+14	-8.81472E+14	-3.97463E+14	-2.5501E+14	-1.67877E+14	-2.4099E+14	9.55898E+14
83	9141516	-8.26342E+14	-2.8381E+14	4.58646E+14	-4.56854E+14	8.7169E+14	1.77314E+14	-8.71647E+14	-3.989E+14	-2.84799E+14	-1.77526E+14	-2.84666E+14	9.42045E+14
84	9141516	-7.35331E+14	-5.0499E+14	2.23934E+14	-4.73649E+14	8.55279E+14	2.1013E+14	-8.61284E+14	-3.99983E+14	-3.13375E+14	-1.83975E+14	-3.29411E+14	9.2609E+14
85	9141516	-6.34381E+14	-5.6732E+14	-1.17955E+14	-4.93264E+14	8.33725E+13	2.48181E+14	-8.50718E+14	-4.02797E+14	-3.37687E+14	-1.81572E+14	-3.77701E+14	9.0795E+14
86	9141516	-6.33004E+14	-5.75403E+14	-1.93039E+13	-5.12612E+14	8.07719E+14	2.91236E+14	-8.42714E+14	-4.08303E+14	-3.50887E+14	-1.64505E+14	-4.25298E+14	8.89977E+14
87	9141516	-6.61445E+14	-5.04092E+14	-3.65719E+14	-5.36646E+13	7.74778E+14	3.34261E+14	-8.32023E+14	-4.19889E+14	-3.62534E+14	-1.40531E+14	-4.72665E+14	8.69965E+14
88	9141516	-4.40624E+14	-1.94116E+14	-8.82984E+14	-5.52389E+14	7.37065E+14	3.89361E+14	-8.28409E+14	-4.33414E+14	-3.54812E+14	-9.27647E+14	-5.18544E+14	8.50004E+14
89	9141516	-4.35175E+14	-3.62546E+14	-8.35982E+14	-5.63133E+14	6.96251E+14	4.45103E+14	-8.25283E+14	-4.4627E+14	-3.4605E+14	-4.23012E+14	-5.62208E+14	8.25913E+14
90	9141516	-6.55577E+14	-3.65959E+11	-1.18446E+14	-5.71228E+14	6.6253E+14	4.84512E+14	-8.20785E+14	-4.63424E+14	-3.33992E+14	3.25485E+14	-5.88466E+14	8.08516E+14
91	9141516	-4.47749E+14	-3.24645E+14	-9.53757E+14	-5.76097E+13	6.32455E+13	5.17796E+14	-8.15708E+14	-4.8536E+14	-3.14715E+14	5.22748E+14	-6.03677E+14	7.95513E+14
92	9141516	-5.3355E+14	-7.8856E+14	-7.8389E+14	-5.81337E+14	6.14368E+14	5.33478E+14	-8.08227E+14	-5.11675E+14	-2.91474E+14	9.38947E+13	-6.00616E+14	7.94005E+14
93	9141516	-3.8967E+14	-6.16418E+14	-7893984375	-5.91133E+14	6.06303E+14	5.31939E+14	-7.96282E+14	-5.43707E+13	-2.65176E+14	1.28442E+14	-5.80327E+14	8.04191E+14
94	9141516	-1.93577E+14	-6.99346E+11	-6.43003E+14	-6.0115E+14	6.0227E+14	5.25251E+14	-7.82341E+14	-5.77579E+14	-2.33118E+14	1.62974E+14	-5.51065E+14	8.18393E+14
95	9141516	1.13584E+14	-4.89841E+14	-6.00072E+14	-6.1733E+14	6.00188E+14	5.08605E+14	-7.63186E+14	-6.13786E+14	-2.02026E+13	1.90921E+14	-5.12876E+14	8.36963E+14
96	9141516	6.45218E+13	-3.73324E+14	-1.86512E+14	-6.38654E+14	5.95354E+13	4.8752E+14	-7.38947E+14	-6.51246E+14	-1.7273E+14	2.1466E+14	-4.70566E+14	8.55856E+14
97	9141516	6.96651E+14	-6.57493E+14	2.79798E+14	-6.64404E+14	5.90755E+14	4.57795E+14	-7.1334E+13	-6.83996E+14	-1.52626E+14	2.22965E+14	-4.27969E+14	8.75859E+14
98	9141516	7.2132E+14	-1.98547E+14	3.11532E+14	-6.83268E+13	5.96309E+14	4.21379E+14	-6.97474E+14	-7.03776E+14	-1.35018E+14	2.16044E+14	-3.86154E+14	8.96777E+14
99	9141516	7.34073E+14	1.86213E+14	6.36057E+14	-7.12425E+14	5.94762E+14	3.72437E+14	-6.73563E+14	-7.28461E+14	-1.2513E+14	1.96883E+14	-3.40006E+14	9.19583E+14
100	9141516	6.35399E+14	-2.49142E+14	1.26822E+14	-7.33189E+14	5.9072E+14	3.36872E+13	-6.51849E+14	-7.51633E+14	-1.00702E+14	1.93718E+14	-2.93423E+14	9.3615E+14
101	9141516	5.01457E+14	6.59409E+14	5.09421E+14	-7.53995E+14	5.93451E+14	2.81616E+13	-6.3615E+14	-7.66544E+14	-8.78777E+14	1.6372E+14	-2.4541E+14	9.55494E+14
102	9141516	7.65089E+14	4.27691E+14	1.23116E+14	-7.779E+14	5.80078E+14	2.41622E+14	-6.08682E+14	-7.91114E+13	-6.03703E+14	1.56131E+14	-1.94033E+14	9.68491E+13
103	9141516	6.13724E+14	4.07632E+13	9.88604E+14	-7.9257E+14	5.76102E+14	1.99849E+14	-5.95991E+14	-8.01167E+14	-5.40964E+14	1.28947E+14	-1.61983E+14	9.78332E+14
104	9141516	-1.80764E+14	5.41933E+14	7.76765E+14	-8.18739E+14	5.52613E+14	1.55838E+14	-5.66996E+14	-8.20925E+14	-6.78127E+14	9.04569E+14	-1.4388E+14	9.85452E+14
105	9141516	-2.87522E+14	9.1837E+14	7.63412E+14	-8.4084E+14	5.28326E+13	1.17725E+14	-5.38607E+14	-8.38257E+14	-8.50207E+13	5.37651E+14	-1.34896E+13	9.894E+14
106	9141516	-1.30229E+14	8.63345E+14	8.0305E+14	-8.57116E+13	5.07552E+14	8.79917E+14	-5.14429E+13	-8.52247E+14	-9.50733E+14	2.6736E+14	-1.26754E+14	9.91574E+14
107	9141516	-4.73256E+11	5.69775E+14	9.31962E+14	-8.74736E+14	4.8054E+14	6.26021E+14	-4.84598E+14	-8.67817E+14	-1.09813E+14	1.55782E+14	-1.26394E+14	9.91979E+13
108	9141516	-6.70067E+14	5.99713E+11	8.14786E+13	-8.9214E+14	4.50152E+14	3.80822E+14	-4.5102E+12	-8.82685E+14	-1.32093E+13	-2.58474E+14	-1.35022E+14	9.90505E+14
109	9141516	-7.25392E+14	4.15057E+14	8.40592E+14	-9.07274E+14	4.20148E+14	1.81667E+14	-4.1689E+14	-8.9288E+14	-1.70198E+14	-5.52876E+13	-1.6199E+14	9.85242E+14
110	9141516	-7.88141E+14	5.24509E+13	2.66087E+14	-9.23512E+14	3.83537E+14	4.91293E+14	-3.76095E+14	-9.02928E+14	-2.08024E+14	-7.53491E+14	-1.93961E+14	9.78111E+14
111	9141516	-7.51557E+13	-1.0089E+14	4.07692E+14	-9.38913E+12	3.43886E+14	1.35748E+14	-3.36384E+14	-9.0867E+14	-2.47313E+14	-7.27124E+14	-2.36772E+14	9.68841E+14
112	9141516	-8.70889E+14	-1.75794E+13	9.55613E+13	-9.52477E+14	3.03279E+14	2.84461E+14	-2.98588E+14	-9.11087E+14	-2.84193E+14	-6.02729E+14	-2.7918E+14	9.58345E+13
113	9141516	-7.25451E+14	-2.91294E+14	-4.64215E+14	-9.6413E+14	2.60319E+14	5.18381E+14	-2.62959E+14	-9.10173E+14	-3.2006E+14	-3.61362E+14	-3.22211E+14	9.45978E+14
114	9141516	-4.07453E+14	-7.56108E+14	1.46815E+14	-9.73684E+14	2.14187E+14	7.78692E+14	-2.27829E+12	-9.06063E+14	-3.56573E+14	-5.81899E+14	-3.6493E+14	9.31017E+14
115	9141516	-4.84932E+14	-5.04092E+14	-1.31726E+13	-9.76998E+14	1.86917E+14	1.02649E+14	-2.12438E+14	-8.9502E+14	-3.92185E+14	1.85663E+14	-4.04971E+14	9.14141E+14
116	9141516	-4.78525E+13	-3.22549E+14	-7.4557E+14	-9.77368E+14	1.49252E+14	1.49919E+14	-1.99868E+14	-8.83702E+14	-4.23229E+14	6.93161E+14	-4.43615E+13	8.93533E+14
117	9141516	-6.66115E+14	-4.53677E+14	-7.60658E+11	-9.73976E+13	1.08684E+14	1.98893E+14	-1.89851E+13	-8.70545E+14	-4.5399E+14	1.23804E+14	-4.79936E+14	8.68524E+14
118	9141516	-5.32832E+14	-2.68182E+14	-1.07243E+14	-9.67585E+14	6.05747E+14	2.45174E+14	-1.72091E+14	-8.68669E+14	-4.64542E+14	1.84835E+14	-4.91676E+14	8.50935E+14
119	9141516	-7.62095E+13	-6.00731E+14	-8.52387E+14	-9.57304E+14	2.36411E+14	2.88114E+13	-1.59154E+14	-8.75108E+14	-4.57008E+14	2.41327E+14	-4.8335E+14	8.41507E+14
120	9141516	-4.18889E+14	-4.17033E+14	-9.22142E+14	-9.43087E+14	-1.1827E+14	3.32335E+13	-1.41799E+14	-8.89659E+14	-4.34051E+14	3.00798E+14	-4.56473E+14	8.37349E+13
121	9141516	-5.03732E+14	-6.97969E+14	-4.42839E+14	-9.25676E+14	-3.92989E+14	3.76271E+14	-1.21006E+14	-9.11585E+14	-3.92899E+14	3.58444E+13	-4.09228E+14	8.39077E+14
122	9141516	-1.08375E+14	-6.47015E+14	-5.15588E+14	-9.04009E+14	-6.62851E+14	4.22343E+14	-9.7394E+14	-9.29998E+14	-3.54428E+14	4.16271E+14	-3.6154E+14	8.34271E+14
123	9141516	2.41897E+13	-4.31163E+14	-2.12678E+11	-8.88325E+13	-8.83623E+14	4.50634E+14	-6.3976E+14	-9.47929E+14	-3.11989E+14	4.54737E+13	-3.05977E+13	8.36416E+14
124	9141516	8.34784E+14	-1.78369E+14	-9.4723E+14	-8.69124E+14	-1.08612E+14	4.82521E+14	-2.92054E+14	-9.62618E+13	-2.69284E+13	4.93731E+14	-2.48133E+14	8.33462E+14
125	9141516	8.09816E+14	-5.27683E+14	6.29172E+14	-8.723E+14	-1.14027E+14	4.7549E+14	2.44542E+14	-9.73435E+14	-2.28952E+14	4.88965E+14	-1.98552E+14	8.49406E+14
126	9141516	1.19889E+14	6.99944E+14	3.61169E+12	-8.65966E+14	-1.24325E+14	4.84402E+14	3.70598E+14	-9.81896E+14	-1.85758E+14	4.98727E+13	-1.42909E+14	8.54896E+14
127	9141516	7.01022E+14	2.78122E+14	4.45653E+14	-8.74182E+14	-1.3258E+14	4.67149E+14	7.49101E+14	-9.8731E+14	-1.40026E+14	4.79786E+14	-8.74136E+14	8.7302E+14
128	9141516	8.80828E+14	2.41059E+14	1.01411E+14	-8.74023E+14	-1.35008E+14	4.66752E+14	1.00449E+14	-9.90076E+14	-9.82823E+14	4.75389E+14	-3.90162E+13	8.7891E+12
129	9141516	4.77687E+14	4.50803E+14	6.32944E+14	-8.83648E+14	-1.41828E+14	4.46152E+14	1.28285E+14	-9.89884E+14	-6.05941E+14	4.50233E+14	3.69096E+13	8.92903E+14
130	9141516	4.19607E+11	6.59529E+14	7.26769E+14	-8.87139E+14	-1.65424E+14	4.30836E+14	1.72292E+14	-9.84769E+14	-2.33456E+14	4.28136E+14	5.35188E+14	9.02128E+13
131	9141516	2.72493E+14	5.01397E+14	9.68785E+14	-8.93895E+14	-1.8956E+14	4.06226E+14	2.06492E+14	-9.78446E+14	-2.19567E+14	3.97886E+14	8.19198E+14	9.1377E+14
132	9141516	6.4905E+13	8.92684E+14	5.70075E+14	-8.98136E+14	-2.20222E+14	3.80596E+14	2.41828E+14	-9.70275E+13	9.24631E+14	3.67247E+14	1.00343E+14	9.24695E+14
133	9141516	-9.69384E+14	9.07293E+14	7.38025E+14	-9.01905E+14	-2.54184E+13	3.49225E+14	2.76433E+14	-9.60924E+14	1.45029E+14	3.31892E+14	1.09618E+14	9.36927E+14
134	9141516	-8.80768E+14	7.80836E+14	8.8963E+14	-9.00633E+14	-2.9308E+14	3.2088E+14	3.11314E+14	-9.50289E+14	5.82534E+14	3.03221E+13	1.05141E+13	9.47102E+14
135	9141516	-4.83674E+14	6.00072E+14	8.57177E+14	-8.92858E+14	-3.39911E+14	2.95407E+14	3.51604E+14	-9.36039E+14	-1.4343E+13	2.81388E+14	9.10599E+13	9.55264E+14
136	9141516	-6.14323E+14	5.33311E+14	7.07489E+13	-8.87338E+13	-3.79607E+14	2.61783E+14	3.83201E+14	-9.22829E+14	-3.92843E+14	2.56494E+14	6.54571E+14	9.64327E+14
137	9141516	-5.65704E+13	2.94049E+14	7.83112E+14	-8.75058E+13	-4.24259E+14	2.32975E+14	4.2025E+14	-9.04769E+14	-6.91587E+14	2.4013E+14	3.73899E+14	9.70021E+14
138	9141516	-5.79415E+14	-1.80824E+14	8.37419E+14	-8.60939E+14	-4.6497E+14	2.06367E+14	4.5391E+14	-8.85301E+14	-1.01031E+14	2.29674E+14	6.69033E+14	9.73245E+13
139	9141516	-6.83958E+14	-3.30812E+14	4.99541E+14	-8.49943E+14	-4.95825E+13	1.78198E+14	4.78416E+14	-8.67972E+14	-1.33202E+14	2.20715E+14	-2.79613E+14	9.74937E+14
140	9141516	-6.03605E+14	-4.65113E+13	4.91338E+14	-8.43008E+14	-5.17536E+14	1.46607E+14	4.95355E+14	-8.53177E+14	-1.63442E+14	2.09669E+14	-6.51604E+14	9.75599E+14
141	9141516	-4.79603E+14	-5.69895E+14	1.85255E+14	-8.39417E+14	-5.30185E+14	1.19508E+14	5.03412E+14	-8.41363E+14	-1.96685E+14	2.04829E+14	-1.04939E+14	9.73156E+13
142	9141516	-2.84409E+14	-4.96727E+13	2.04295E+14	-8.39198E+14	-5.36037E+13	9.17155E+14	5.06199E+14	-8.31586E+14	-2.28532E+14	1.98771E+14	-1.45357E+14	9.69207E+14
143	9141516	-5.15229E+14	-1.78848E+14	-5.2415E+14	-8.21723E+14	-5.61402E+13	9.79711E+14	5.18579E+14	-8.07899E+14	-2.79957E+14	2.36319E+14	-1.79242E+14	9.55E+13
144	9141516	-7.89518E+14	-3.40452E+14	-7.49102E+14	-8.11173E+14	-5.7622E+14	9.98426E+14	5.19308E+14	-7.88255E+14	-3.30111E+14	2.68918E+14	-2.15928E+14	9.38647E+14
145	9141516	-8.53405E+14	-3.40272E+14	-8.6059E+14	-7.92232E+14	-5.9856E+14	1.18721E+12	5.22744E+14	-7.66066E+14	-3.74007E+14	3.14814E+14	-2.34239E+14	9.19796E+14
146	9141516	-8.45143E+14	-3.71288E+14	-1.03716E+14	-7.70563E+14	-6.2022E+14	1.4683E+14	5.33206E+14	-7.53506E+14	-3.84603E+14	3.49176E+14	-2.1807E+14	9.11329E+14
147	9141516	-5.81151E+14	-4.6164E+14	-7.27667E+14	-7.46674E+14	-6.39227E+14	1.84027E+14	5.42928E+14	-7.45491E+13	-3.86617E+14	3.84327E+14	-1.88764E+14	9.03693E+14
148	9141516	-5.51693E+14	-8.33706E+14	-2.68901E+14	-7.1446E+14	-6.62052E+14	2.26349E+14	5.5514E+14	-7.33295E+14	-3.92553E+14	4.25871E+14	-1.54808E+14	8.91442E+13
149	9141516	-7.38564E+14	-1.16793E+14	-8.71188E+14	-7.00468E+14	-6.69287E+14	2.47789E+14	5.57468E+14	-7.29894E+13	-3.9558E+14	4.45616E+14	-1.38957E+14	8.84374E+13
150	9141516	-2.86325E+14	-9.18909E+14	-2.61057E+13	-6.80208E+14	-6.80338E+14	2.72868E+14	5.6066E+14	-7.22678E+14	-4.04223E+14	4.72204E+14	-1.2197E+14	8.7301E+14
151	9141516	-2.12019E+14	-1.02243E+14	8.30473E+14	-6.61977E+14	-6.92227E+14	2.87418E+14	5.65609E+14	-7.1297E+14	-4.14439E+14	4.91806E+14	-1.11783E+13	8.635E+14
152	9141516	-4.64634E+12	-9.58906E+14	8.22689E+14	-6.53391E+14	-6.96818E+14	2.95846E+14	5.64945E+14	-7.08965E+14	-4.22145E+14	5.03903E+14	-1.08689E+14	8.56895E+12
153	9141516	1.0119E+14	-8.48795E+11	-6.47853E+14	-6.43916E+14	-7.00958E+14	3.06642E+14	5.62653E+14	-7.05428E+14	-4.31037E+14	5.18453E+14	-1.05019E+14	8.48633E+14
154	9141516	2.78122E+14	-8.96037E+14	7.694E+14	-6.39326E+14	-7.03045E+14	3.11432E+14	5.60662E+13	-7.03392E+14	-4.36919E+13	5.26233E+14	-1.04725E+14	8.43867E+14
155	9141516	2.33275E+13	-9.07233E+12	7.95146E+11	-6.47922E+14	-6.98676E+14	3.03397E+14	5.51491E+14	-7.05037E+13	-4.45848E+14	5.25409E+13	-1.21554E+14	8.42122E+14
156	9141516	5.25707E+14	-8.81786E+14	5.05948E+14	-6.54077E+14	-6.94447E+14	2.99879E+14	5.39071E+14	-7.06045E+14	-4.59241E+13	5.30646E+14	-1.38723E+14	8.36164E+13
157	9141516	-1.74298E+14	-8.55621E+14	-1.20529E+14	-6.50862E+14	-6.96668E+14	3.01716E+14	5.29662E+14	-7.01402E+14	-4.76963E+14	5.43909E+14	-1.5063E+14	8.25514E+14
158	9141516	-4828359375	-9.73276E+14	-1.54539E+14	-6.33334E+13	-7.07853E+14	3.12782E+14	5.30496E+14	-6.91378E+14	-4.90479E+14	5.63438E+14	-1.44707E+14	8.13386E+14
159	9141516	-4.18051E+14	-1.03423E+14	-1.51784E+14	-6.01077E+14	-7.26437E+14	3.3316E+14	5.40438E+14	-6.7657E+14	-5.0018E+14	5.88755E+14	-1.20594E+14	7.99265E+14
160	9141516	-1.82321E+14	-7.14913E+14	-4.04938E+14	-5.60683E+14	-7.45216E+14	3.60954E+14	5.53658E+14	-6.61544E+13	-5.05789E+14	6.15709E+14	-8.37418E+14	7.83511E+14
161	9141516	3.32429E+12	-9.60044E+14	6.08335E+12	-5.23371E+14	-7.60938E+14	3.83478E+14	5.66846E+14	-6.46927E+12	-5.1007E+14	6.36214E+14	-4.95827E+14	7.69918E+14
162	9141516	2.5962E+12	-5.57501E+14	-3.54463E+11	-4.8711E+14	-7.71077E+14	4.10078E+14	5.84677E+14	-6.36722E+14	-5.02731E+14	6.4875E+14	-5.12213E+14	7.60985E+14
163	9141516	9.71839E+14	-3.19555E+14	6.65217E+14	-4.56613E+14	-7.78437E+14	4.30745E+14	6.0605E+14	-6.26612E+14	-4.8996E+14	6.51313E+14	3.73311E+14	7.57891E+14
164	9141516	7.73711E+14	-1.51066E+14	-4.43079E+13	-4.42359E+14	-7.82011E+14	4.39064E+14	6.26176E+14	-6.19794E+14	-4.73031E+14	6.42045E+14	6.56817E+13	7.63848E+14
165	9141516	7.2156E+14	3.74222E+14	-2.27527E+13	-4.3066E+14	-7.82594E+14	4.49532E+14	6.56777E+14	-6.13384E+14	-4.3864E+14	6.19012E+14	1.06337E+14	7.78149E+14
166	9141516	6.19711E+14	1.67651E+12	7.38804E+14	-4.30472E+14	-7.85257E+14	4.45046E+14	6.89874E+14	-6.04193E+14	-3.98779E+14	5.82038E+14	1.35363E+14	8.01816E+14
167	9141516	7.81674E+14	7.92153E+14	1.01812E+14	-4.32715E+14	-7.8908E+14	4.36015E+14	7.18499E+14	-5.93971E+14	-3.61881E+14	5.44534E+14	1.56685E+13	8.23974E+14
168	9141516	5.44568E+14	3.10275E+14	8.42508E+14	-4.39994E+14	-7.88167E+14	4.30345E+14	7.41546E+14	-5.89181E+14	-3.20898E+14	5.06472E+14	1.77928E+14	8.43699E+14
169	9141516	2.13516E+14	3.35901E+14	9.64774E+14	-4.33114E+14	-7.91215E+14	4.3173E+14	7.68151E+14	-5.74604E+14	-2.82443E+14	4.71547E+14	2.09304E+14	8.56642E+14
170	9141516	1.73759E+14	4.63556E+14	8.78194E+14	-4.31189E+14	-7.93611E+14	4.29252E+14	7.8744E+14	-5.63255E+14	-2.50364E+14	4.4047E+14	2.30056E+14	8.67791E+14
171	9141516	-6.23903E+14	4.5667E+14	8.93282E+14	-4.30294E+14	-7.94662E+14	4.28204E+13	8.05352E+14	-5.52225E+14	-2.15538E+13	4.07745E+14	2.52111E+14	8.77602E+14
172	9141516	7.52635E+14	2.3585E+14	1.30666E+14	-4.28079E+14	-7.97618E+14	4.24917E+14	8.13404E+14	-5.4495E+14	-2.03477E+14	3.93855E+14	2.58525E+14	8.82067E+14
173	9141516	-2.96743E+14	5.09361E+14	8.80768E+14	-4.24049E+14	-8.02311E+14	4.20094E+14	8.2279E+14	-5.35124E+14	-1.91463E+14	3.78415E+14	2.6446E+14	8.87053E+14
174	9141516	-9.5681E+14	2.98659E+14	1.25032E+14	-4.16679E+14	-8.13285E+14	4.06136E+14	8.27327E+14	-5.24406E+13	-2.01317E+13	3.76708E+14	2.52123E+14	8.91361E+14
175	9141516	-2.26808E+14	3.83622E+14	1.32738E+14	-4.01581E+14	-8.32827E+14	3.80961E+14	8.26699E+14	-5.08645E+14	-2.40516E+14	3.94083E+14	2.18354E+14	8.9276E+13
176	9141516	-3.41769E+14	1.38971E+14	9.17173E+14	-3.91008E+14	-8.49833E+14	3.53409E+14	8.2363E+14	-4.94457E+14	-2.77751E+13	4.10787E+14	1.82476E+14	8.93284E+14
177	9141516	1.69627E+14	-2.019E+14	1.18146E+14	-3.96649E+14	-8.5833E+13	3.25483E+14	8.08927E+14	-4.94435E+14	-3.18075E+14	4.33944E+14	1.37128E+14	8.90443E+14
178	9141516	-1.44599E+14	5.43669E+13	8.28797E+14	-4.1201E+14	-8.61919E+14	2.95539E+14	7.93181E+14	-4.98899E+14	-3.49233E+14	4.48455E+14	9.05284E+14	8.89209E+14
179	9141516	-1.28912E+14	-2.5028E+14	4.24098E+14	-4.26699E+14	-8.65104E+14	2.63674E+14	7.8052E+14	-4.99531E+14	-3.75843E+14	4.56856E+14	4.54312E+14	8.8838E+14
180	9141516	-1.85015E+14	-4.25894E+14	4.39606E+14	-4.39675E+14	-8.67687E+14	2.3196E+14	7.71875E+14	-4.97088E+13	-3.96374E+14	4.59234E+14	4.76841E+14	8.88303E+14
181	9141516	-3.21771E+14	-5.9618E+14	3.10155E+14	-4.49894E+14	-8.70174E+14	2.00981E+14	7.69504E+14	-4.91916E+14	-4.07287E+14	4.53276E+14	-2.85806E+14	8.90912E+14
182	9141516	2.72433E+14	-6.64618E+14	5.71392E+14	-4.64367E+14	-8.7075E+13	1.61737E+14	7.6391E+14	-4.86204E+14	-4.2432E+14	4.48114E+14	-7.3488E+14	8.90951E+13
183	9141516	-2.71296E+14	-5.57441E+14	2.19743E+14	-4.78513E+14	-8.6912E+14	1.25122E+14	7.56016E+13	-4.80266E+13	-4.4473E+14	4.46616E+14	-1.18215E+14	8.86882E+14
184	9141516	-3.52667E+14	-5.11337E+14	-6.24142E+13	-4.8414E+14	-8.69158E+14	1.00862E+14	7.44697E+14	-4.6982E+14	-4.74021E+13	4.59386E+14	-1.54381E+14	8.74718E+14
185	9141516	-6.79168E+14	-7.05333E+14	-7.81315E+14	-4.88499E+14	-8.69037E+14	7.83802E+14	7.36304E+14	-4.58748E+14	-4.974E+13	4.68216E+14	-1.85268E+14	8.63973E+14
186	9141516	-6.81144E+12	-5.58519E+12	-1.24535E+14	-4.85547E+14	-8.69327E+14	9.22755E+14	7.28119E+14	-4.60564E+14	-5.07665E+14	4.83826E+14	-1.79308E+14	8.56599E+14
187	9141516	-6.88987E+14	-6.35099E+14	-1.07159E+14	-4.80792E+13	-8.67342E+14	1.28671E+14	7.2349E+14	-4.75321E+14	-5.00632E+14	4.95379E+14	-1.47607E+14	8.56044E+14
188	9141516	-5.1439E+14	-4.07632E+13	-4.98523E+14	-4.65876E+14	-8.67362E+14	1.75051E+13	7.23345E+14	-4.87259E+14	-4.89235E+14	5.09639E+14	-1.01301E+14	8.54404E+14
189	9141516	-4.82477E+14	-6.46236E+14	2.38005E+14	-4.54937E+14	-8.63858E+14	2.1629E+14	7.25886E+14	-5.00423E+13	-4.71875E+14	5.15869E+14	-5.76718E+14	8.54724E+14
190	9141516	-2.49022E+14	-3.91705E+14	3.93741E+12	-4.38992E+14	-8.60167E+14	2.59612E+14	7.29402E+14	-5.09897E+14	-4.56046E+14	5.24651E+14	-1.08387E+14	8.51249E+14
191	9141516	-1.45917E+14	-4.73435E+14	9.40345E+14	-4.30233E+14	-8.52138E+14	2.97927E+14	7.34244E+14	-5.22327E+14	-4.33658E+14	5.25152E+14	3.21769E+14	8.504E+14
192	9141516	-9.48428E+11	-1.54658E+14	8.03529E+14	-4.2193E+14	-8.4111E+14	3.38392E+14	7.36629E+14	-5.35631E+14	-4.12889E+14	5.28538E+13	7.50585E+14	8.45585E+14
193	9141516	-1.6346E+14	-7.57425E+14	9.65013E+14	-4.212E+14	-8.2484E+14	3.77132E+14	7.35533E+13	-5.53937E+14	-3.90057E+14	5.30642E+13	1.13101E+14	8.40016E+14
194	9141516	-2.19084E+14	1.11488E+14	1.05489E+14	-4.18096E+14	-8.10061E+13	4.11092E+14	7.37338E+14	-5.66952E+14	-3.67285E+14	5.30593E+14	1.49554E+14	8.34329E+14
195	9141516	-2.42017E+14	1.16877E+11	1.22799E+14	-4.16478E+13	-8.02087E+14	4.28021E+14	7.44989E+14	-5.70935E+14	-3.45001E+14	5.21093E+14	1.75185E+14	8.35328E+14
196	9141516	-1.03824E+14	7.9814E+14	1.46036E+14	-4.1157E+14	-8.06244E+14	4.24949E+14	7.52912E+14	-5.63523E+14	-3.39949E+14	5.1355E+14	1.80036E+14	8.3896E+14
197	9141516	-1.45438E+14	2.15612E+14	1.15218E+14	-4.05838E+14	-8.16788E+13	4.10066E+14	7.59023E+14	-5.51142E+14	-3.46592E+14	5.09097E+14	1.70589E+14	8.43635E+14
198	9141516	-9.43638E+12	1.45378E+14	1.05908E+14	-4.06013E+14	-8.27944E+14	3.86862E+14	7.59422E+14	-5.41158E+14	-3.61145E+13	5.08361E+14	1.47162E+14	8.48476E+14
199	9141516	4.38887E+14	1.16817E+14	8.8957E+14	-4.08187E+13	-8.34505E+14	3.70115E+13	7.47662E+14	-5.3823E+14	-3.88986E+13	5.23818E+14	1.17942E+14	8.43626E+14
200	9141516	-1.40109E+14	-8.69392E+13	1.15416E+14	-4.12967E+14	-8.41991E+12	3.47144E+14	7.26923E+14	-5.34361E+14	-4.31326E+14	5.48673E+14	7.42239E+14	8.32736E+14
201	9141516	-2.97402E+14	-1.18134E+14	9.16933E+14	-4.2298E+13	-8.46186E+14	3.24125E+14	7.0161E+14	-5.32203E+14	-4.73818E+14	5.73438E+14	2.69941E+14	8.18804E+14
202	9141516	-1.22206E+14	-1.51006E+14	5.26725E+14	-4.24171E+14	-8.45805E+14	3.23563E+14	6.69882E+14	-5.33487E+14	-5.16381E+14	6.09374E+14	-2.28499E+14	7.9288E+14
203	9141516	-5.44867E+14	-3.05784E+14	3.79611E+14	-4.14429E+14	-8.44059E+14	3.40314E+14	6.43221E+14	-5.36196E+14	-5.46589E+14	6.43829E+14	-7.62499E+14	7.65132E+14
204	9141516	-5.02954E+12	-6.29291E+14	6.43003E+14	-3.86052E+14	-8.38168E+14	3.85277E+14	6.27917E+14	-5.44727E+13	-5.55872E+14	6.75785E+14	2.73263E+14	7.36593E+14
205	9141516	2.93031E+14	-1.36336E+14	9.23879E+14	-3.39848E+14	-8.32216E+13	4.38087E+14	6.20809E+14	-5.48417E+14	-5.6021E+14	7.0647E+14	8.15819E+14	7.03026E+14
206	9141516	83155078125	-3.06742E+14	8.88013E+14	-3.1088E+14	-8.21892E+14	4.77333E+14	6.2183E+14	-5.55699E+14	-5.51839E+14	7.18806E+14	1.25264E+14	6.83833E+14
207	9141516	5.45945E+14	4.73675E+14	1.23224E+14	-2.79707E+14	-8.09247E+14	5.16608E+14	6.37203E+14	-5.58964E+14	-5.30596E+13	7.18148E+14	1.80773E+14	6.72E+13
208	9141516	7.65867E+14	1.63041E+14	1.09889E+14	-2.63295E+14	-8.0774E+14	5.27477E+14	6.6467E+11	-5.48175E+14	-5.07659E+14	6.99206E+14	2.16934E+14	6.81213E+14
209	9141516	1.00579E+14	8.71128E+14	3.45482E+14	-2.43018E+14	-8.03335E+14	5.43686E+14	6.82258E+14	-5.39977E+14	-4.92898E+14	6.89541E+14	2.51151E+14	6.79306E+14
210	9141516	5.05529E+14	6.4432E+14	8.19636E+14	-2.27993E+14	-8.06956E+13	5.44831E+13	7.12772E+14	-5.19532E+14	-4.71214E+14	6.63307E+14	2.80907E+14	6.93625E+14
211	9141516	7.66286E+14	9.97945E+14	6.23004E+14	-2.14516E+14	-8.15164E+14	5.38043E+14	7.39319E+14	-4.955E+14	-4.55946E+14	6.38272E+14	2.99977E+14	7.08959E+14
212	9141516	2.31658E+14	7.12997E+14	7.8389E+14	-2.02264E+14	-8.24771E+14	5.28055E+14	7.61451E+14	-4.71523E+14	-4.44812E+14	6.15858E+14	3.12119E+14	7.23395E+14
213	9141516	1.70346E+14	8.18199E+14	7.87722E+14	-1.93908E+14	-8.40074E+14	5.06632E+14	7.87631E+14	-4.4119E+14	-4.30104E+14	5.8484E+14	3.15638E+14	7.47218E+14
214	9141516	2.86205E+14	7.44372E+12	7.23176E+14	-1.75502E+14	-8.55074E+14	4.87901E+14	8.11634E+14	-4.06159E+14	-4.19864E+14	5.5718E+13	3.2231E+14	7.65288E+14
215	9141516	-1.9214E+14	5.26665E+14	9.24957E+13	-1.54927E+14	-8.76117E+14	4.56527E+14	8.37796E+14	-3.61403E+14	-4.09251E+14	5.23542E+14	3.19072E+14	7.89998E+14
216	9141516	-1.43522E+14	5.2403E+12	8.72745E+12	-1.32029E+14	-8.95831E+14	4.24329E+14	8.59648E+14	-3.16615E+14	-4.0095E+14	4.93532E+14	3.11837E+14	8.11902E+14
217	9141516	-2.26988E+14	3.47577E+14	7.51318E+14	-1.17552E+14	-9.11643E+14	3.93814E+14	8.7595E+14	-2.82018E+14	-3.91378E+14	4.6786E+14	2.98954E+14	8.31705E+14
218	9141516	-3.39135E+11	1.93877E+14	6.06479E+14	-1.07703E+14	-9.2475E+14	3.65017E+14	8.90343E+14	-2.53084E+14	-3.78467E+14	4.42367E+14	2.84228E+14	8.50603E+13
219	9141516	-6.48931E+14	-1.23044E+14	8.91486E+14	-9.69866E+14	-9.37975E+14	3.32861E+14	9.01133E+14	-2.24743E+14	-3.70743E+14	4.22556E+14	2.63995E+14	8.67037E+14
220	9141516	-6.06239E+14	-3.27459E+14	7.03357E+14	-8.62289E+14	-9.50699E+14	2.97885E+14	9.08576E+14	-1.97705E+14	-3.67969E+14	4.08722E+14	2.38922E+14	8.80831E+14
221	9141516	-7.37546E+14	-4.54934E+14	5.74026E+14	-7.13807E+14	-9.63036E+14	2.59744E+13	9.14227E+14	-1.67302E+14	-3.69053E+14	3.98867E+14	2.11122E+14	8.92375E+14
222	9141516	-4.42839E+14	-5.54746E+14	5.5786E+14	-5.64521E+14	-9.73984E+14	2.19474E+13	9.13437E+14	-1.39126E+14	-3.82462E+14	4.03047E+14	1.78885E+14	8.97526E+14
223	9141516	-3.18538E+13	-5.99653E+14	5.33371E+14	-4.88138E+13	-9.82638E+14	1.78994E+14	9.09038E+14	-1.1796E+14	-3.99669E+14	4.13845E+14	1.43203E+14	8.99014E+14
224	9141516	-5.06008E+14	-5.28581E+14	1.65256E+13	-4.70666E+14	-9.8916E+14	1.39094E+14	9.02007E+14	-1.01912E+14	-4.19521E+14	4.29149E+14	1.05718E+14	8.97026E+14
225	9141516	-6.5414E+14	-5.20438E+14	-5.81391E+14	-5.15174E+14	-9.93797E+14	9.85543E+13	8.99568E+14	-8.90385E+14	-4.2761E+14	4.33733E+14	6.66269E+14	8.98575E+14
226	9141516	-8.31192E+14	-6.67372E+14	-6.1055E+14	-4.52916E+14	-9.9625E+14	7.37232E+14	9.00554E+13	-7.26599E+14	-4.28628E+14	4.32377E+14	4.69785E+14	9.00468E+14
227	9141516	-4.15356E+14	-5.24928E+14	-7.14913E+14	-3.51942E+14	-9.97725E+14	5.75046E+14	8.96788E+14	-5.69233E+14	-4.38784E+14	4.41059E+14	3.61268E+14	8.96751E+14
228	9141516	-5.60674E+14	-5.41694E+14	-9.08251E+14	-2.9663E+13	-9.97618E+14	6.22691E+14	8.96098E+14	-5.4142E+14	-4.40541E+14	4.42863E+14	4.27315E+14	8.9557E+14
229	9141516	-2.72793E+14	-4.617E+14	-8.52328E+14	-2.27711E+14	-9.94751E+13	9.9759E+14	8.81902E+14	-6.69859E+14	-4.66649E+14	4.70882E+14	7.73516E+14	8.78799E+14
230	9141516	-3.35662E+14	-4.71998E+14	-3.43386E+14	-3.00646E+13	-9.88806E+14	1.46146E+14	8.66765E+14	-9.86095E+14	-4.88871E+14	4.9781E+14	1.11977E+13	8.60027E+13
231	9141516	-6.31327E+12	-6.35878E+14	1.45797E+14	-2.95484E+14	-9.81142E+14	1.91015E+14	8.52182E+14	-1.24603E+14	-5.08192E+14	5.2241E+14	1.47763E+14	8.39794E+14
232	9141516	-5.17145E+14	-5.40736E+14	4.6146E+14	-2.83579E+14	-9.71472E+13	2.35451E+14	8.38486E+14	-1.5135E+14	-5.23483E+14	5.44185E+13	1.82577E+14	8.18858E+14
233	9141516	-3.24405E+14	-3.37698E+13	7.81615E+14	-2.22738E+14	-9.59893E+14	2.7948E+14	8.23953E+14	-1.75951E+14	-5.38648E+14	5.6622E+14	2.18281E+14	7.94826E+14
234	9141516	-5.18162E+14	-1.45497E+14	7.17308E+14	-1.58637E+14	-9.46335E+14	3.22799E+14	8.18132E+14	-1.9788E+14	-5.3991E+14	5.74811E+13	2.55527E+14	7.77366E+14
235	9141516	-2.07289E+14	-2.36748E+14	1.27062E+14	-1.10696E+14	-9.34408E+14	3.56034E+14	8.14305E+14	-2.15067E+14	-5.39124E+14	5.80332E+14	2.83952E+14	7.63273E+14
236	9141516	1.13763E+14	2.81355E+14	8.05625E+14	-1.18077E+14	-9.20908E+14	3.89601E+14	8.03383E+14	-2.40717E+14	-5.44639E+14	5.95346E+14	3.06568E+14	7.42684E+13
237	9141516	2.595E+14	2.41059E+14	1.21416E+14	-6.74708E+14	-9.07908E+14	4.19116E+14	7.76998E+14	-2.68592E+13	-5.69327E+14	6.29468E+13	3.21811E+14	7.07254E+14
238	9141516	-8.11912E+13	1.31726E+13	1.44557E+14	-9.10277E+13	-9.06178E+13	4.22799E+14	7.51686E+14	-2.85042E+14	-5.94743E+14	6.59458E+14	3.12398E+14	6.83756E+14
239	9141516	3.36979E+14	3.95597E+14	7.66885E+13	-6.34319E+14	-9.07887E+14	4.19167E+14	7.20628E+14	-2.94767E+14	-6.27541E+14	6.93293E+14	2.98083E+14	6.56118E+14
240	9141516	1.77291E+14	1.32145E+14	9.07832E+14	-6.74703E+14	-9.11747E+14	4.10696E+14	6.94053E+14	-2.9994E+14	-6.54466E+14	7.19892E+14	2.80629E+14	6.34825E+12
241	9141516	2.85905E+14	1.85375E+13	5.40496E+14	-1.34588E+14	-9.14439E+14	4.045E+14	6.8592E+14	-3.02792E+14	-6.61688E+14	7.27552E+14	2.68549E+14	6.31307E+14
242	9141516	5.2427E+14	7.73591E+13	7.02639E+14	-3.1036E+14	-9.17055E+14	3.97551E+14	6.91294E+14	-3.06966E+13	-6.54129E+14	7.21907E+14	2.54523E+14	6.43482E+13
243	9141516	6.67252E+13	1.0119E+14	7.82333E+14	-4.9066E+14	-9.17783E+14	3.94039E+14	6.94696E+14	-3.14815E+14	-6.46752E+14	7.17628E+14	2.42004E+14	6.53027E+14
244	9141516	4.70981E+14	-5.62231E+14	9.02982E+14	-7.80196E+14	-9.20104E+14	3.83824E+14	7.09613E+14	-3.21675E+14	-6.26878E+14	7.00259E+14	2.23458E+14	6.78015E+14
245	9141516	2.34712E+12	-1.26218E+14	8.22629E+14	-1.06176E+14	-9.21199E+14	3.74325E+14	7.28787E+13	-3.28198E+14	-6.00963E+14	6.76459E+14	2.08995E+14	7.06204E+14
246	9141516	4.2338E+14	-11112890625	8.88672E+14	-1.21447E+14	-9.20432E+14	3.71558E+14	7.33832E+14	-3.35321E+14	-5.90806E+14	6.68388E+14	2.00909E+14	7.16166E+13
247	9141516	1.03585E+14	-2.02559E+14	8.11133E+14	-1.29388E+13	-9.18904E+14	3.72657E+14	7.3753E+13	-3.40386E+14	-5.83256E+14	6.62804E+14	1.9938E+14	7.21761E+14
248	9141516	6.1073E+13	-2.43873E+14	9.10287E+14	-1.42465E+14	-9.1892E+14	3.67818E+14	7.43359E+14	-3.44698E+14	-5.73237E+14	6.53545E+14	1.91754E+13	7.32195E+14
249	9141516	1.77291E+14	-1.5891E+14	9.5705E+12	-1.41914E+13	-9.17038E+14	3.72695E+14	7.40335E+14	-3.48255E+14	-5.74998E+14	6.57088E+14	1.94319E+14	7.28338E+14
250	9141516	1.16518E+14	-1.67172E+13	9.68845E+14	-1.41994E+14	-9.15731E+14	3.75865E+14	7.3824E+14	-3.50922E+14	-5.76069E+14	6.59423E+14	1.9568E+14	7.25858E+12
251	9141516	1.42683E+14	-1.08674E+14	8.14067E+14	-1.46018E+14	-9.1447E+13	3.77391E+14	7.42255E+14	-3.53469E+14	-5.69313E+14	6.54016E+14	1.9699E+14	7.30382E+13
252	9141516	1.731E+14	-1.72741E+14	9.94652E+14	-1.4284E+14	-9.14036E+13	3.79652E+13	7.40076E+14	-3.53333E+14	-5.72226E+14	6.57179E+14	1.99235E+14	7.26926E+14
253	9141516	7.20302E+14	-8.8975E+14	7.89877E+13	-1.42606E+14	-9.14546E+14	3.7851E+13	7.41457E+14	-3.52038E+14	-5.71237E+13	6.55672E+14	1.99187E+13	7.28299E+14
254	9141516	2.56866E+14	-1.24361E+14	8.39993E+14	-1.42474E+14	-9.16188E+14	3.74568E+14	7.45277E+14	-3.4833E+14	-5.68532E+14	6.51355E+14	1.98156E+14	7.32442E+14
255	9141516	1.48671E+14	-7.25691E+13	8.92145E+14	-1.4272E+12	-9.16945E+14	3.72617E+14	7.45309E+14	-3.47282E+13	-5.6913E+14	6.51264E+14	1.96489E+14	7.32971E+14
256	9141516	1149609375	-1.61424E+13	8.93402E+14	-1.43485E+14	-9.16682E+14	3.72968E+14	7.47803E+14	-3.47278E+14	-5.65852E+14	6.4823E+14	1.97716E+14	7.35327E+14
257	9141516	1.64957E+14	-1.4909E+14	8.81846E+13	-1.48795E+14	-9.14477E+14	3.76288E+14	7.58355E+14	-3.49736E+14	-5.50075E+14	6.34632E+14	2.03512E+14	7.45537E+14
258	9141516	-8.20294E+14	-1.04004E+14	8.96815E+14	-1.526E+14	-9.13343E+14	3.77516E+14	7.63894E+14	-3.51369E+14	-5.41301E+14	6.27041E+14	2.0578E+14	7.51315E+14
259	9141516	2.16151E+14	-1.249E+14	9.02862E+14	-1.5866E+14	-9.11966E+14	3.78346E+14	7.69548E+14	-3.54298E+14	-5.3129E+14	6.18565E+14	2.0686E+14	7.58014E+13
260	9141516	-1.15141E+14	-1.28253E+14	8.93163E+14	-1.63841E+14	-9.09288E+14	3.82559E+14	7.73711E+14	-3.59025E+13	-5.21989E+14	6.11987E+14	2.10467E+14	7.62349E+14
261	9141516	-1.18853E+14	-1.71603E+14	8.86696E+14	-1.65079E+14	-9.09339E+14	3.81906E+14	7.74955E+14	-3.59108E+14	-5.20083E+14	6.10077E+13	2.10105E+14	7.63978E+14
262	9141516	-8.59213E+14	-1.17775E+14	8.95917E+14	-1.65421E+14	-9.08999E+14	3.82567E+14	7.76156E+14	-3.59316E+14	-5.18145E+14	6.08456E+14	2.11219E+14	7.64963E+14
263	9141516	-8.9933E+14	-1.17715E+14	8.98013E+14	-1.65921E+14	-9.08615E+14	3.83261E+14	7.7738E+14	-3.59642E+14	-5.16079E+14	6.06754E+14	2.12311E+14	7.66012E+14
264	9141516	-8.72985E+14	-1.1544E+13	8.91666E+14	-1.66396E+14	-9.08196E+13	3.84047E+14	7.78581E+14	-3.60007E+14	-5.14011E+14	6.05082E+14	2.13482E+14	7.67008E+14
265	9141516	-9.01126E+14	-1.15141E+14	8.94899E+14	-1.66942E+14	-9.07816E+14	3.84708E+14	7.79839E+14	-3.60327E+14	-5.11875E+14	6.03309E+14	2.14557E+14	7.68104E+14
266	9141516	-8.87953E+14	-1.16518E+14	8.95917E+14	-1.67468E+14	-9.07425E+14	3.85403E+14	7.81067E+14	-3.60656E+14	-5.09765E+14	6.01572E+14	2.15656E+14	7.69158E+14
267	9141516	-8.9933E+14	-1.16338E+14	8.95198E+14	-1.67992E+14	-9.07028E+14	3.86107E+14	7.82295E+13	-3.60986E+14	-5.07645E+14	5.99828E+14	2.16769E+14	7.70206E+14
268	9141516	-8.86756E+14	-1.16278E+14	8.95977E+14	-1.68493E+14	-9.06636E+14	3.8681E+14	7.83533E+14	-3.6129E+14	-5.05515E+14	5.98068E+14	2.17903E+14	7.71254E+14
269	9141516	-8.76577E+12	-1.16757E+14	8.93462E+14	-1.69009E+14	-9.06235E+14	3.87524E+14	7.84763E+14	-3.61609E+14	-5.03375E+14	5.96308E+14	2.19039E+14	7.72294E+14
270	9141516	-8.95737E+12	-1.16757E+14	8.8945E+14	-1.69514E+14	-9.0583E+14	3.88249E+14	7.85977E+14	-3.61925E+14	-5.01249E+14	5.94563E+13	2.20186E+14	7.73313E+14
271	9141516	-8.76577E+12	-1.16877E+11	8.95318E+14	-1.70062E+14	-9.05439E+14	3.88922E+14	7.87197E+14	-3.62238E+14	-4.99104E+14	5.9279E+14	2.2128E+14	7.74361E+14
272	9141516	-90052734375	-1.15859E+14	8.96576E+14	-1.70724E+14	-9.05056E+14	3.89521E+14	7.88331E+14	-3.6262E+14	-4.97032E+14	5.9109E+14	2.22216E+14	7.75392E+14
273	9141516	-8.9454E+14	-1.16578E+14	8.93103E+14	-1.71301E+14	-9.04662E+14	3.90182E+14	7.89539E+14	-3.62942E+13	-4.94874E+14	5.89308E+14	2.23292E+14	7.76439E+14
274	9141516	-8.86756E+14	-1.16398E+13	8.92923E+14	-1.71919E+14	-9.04262E+14	3.90837E+14	7.90743E+14	-3.63287E+14	-4.92694E+14	5.8751E+13	2.24348E+14	7.77496E+14
275	9141516	-8.8496E+14	-1.15979E+14	8.95797E+14	-1.72534E+14	-9.03878E+14	3.91455E+14	7.91992E+14	-3.63588E+14	-4.90461E+14	5.85645E+14	2.25408E+14	7.78595E+13
276	9141516	-8.83163E+14	-1.16039E+14	8.9436E+14	-1.7313E+14	-9.0348E+14	3.92109E+14	7.93193E+14	-3.63908E+14	-4.88279E+14	5.83842E+14	2.26482E+14	7.79638E+14
277	9141516	-8.78373E+14	-1.16518E+14	8.94181E+14	-1.73776E+14	-9.03098E+14	3.92702E+14	7.94404E+14	-3.64223E+14	-4.86069E+14	5.82E+14	2.27497E+14	7.80718E+14
278	9141516	-8.73583E+14	-1.16697E+14	8.94899E+14	-1.74351E+14	-9.02705E+14	3.93351E+14	7.95658E+14	-3.64494E+13	-4.8381E+14	5.80112E+14	2.28621E+14	7.81794E+14
279	9141516	-8.92744E+14	-1.155E+14	8.93881E+14	-1.75046E+14	-9.02328E+13	3.93907E+14	7.96856E+14	-3.6482E+14	-4.81587E+12	5.78255E+14	2.29587E+13	7.82886E+14
280	9141516	-9.01126E+14	-1.17296E+14	8.9424E+14	-1.75712E+14	-9.01951E+14	3.94474E+14	7.98063E+14	-3.65122E+12	-4.79355E+14	5.76386E+14	2.30587E+14	7.8397E+14
281	9141516	-8.90349E+14	-1.16697E+14	8966953125	-1.76379E+14	-9.01573E+14	3.9504E+14	7.99257E+14	-3.65425E+14	-4.7713E+14	5.74525E+13	2.31583E+14	7.85042E+14
282	9141516	-8.95737E+12	-1.16039E+14	8.93881E+14	-1.77042E+14	-9.01191E+14	3.95614E+14	8.00476E+14	-3.65715E+14	-4.74859E+14	5.7262E+14	2.3261E+14	7.86129E+14
283	9141516	-8.78972E+13	-1.1538E+14	8.95857E+14	-1.77693E+14	-9.00797E+14	3.9622E+14	8.0166E+14	-3.66021E+14	-4.7262E+14	5.70759E+14	2.33653E+12	7.87172E+14
284	9141516	-8.96935E+14	-1.1544E+13	8.95498E+14	-1.78377E+14	-9.00408E+14	3.96796E+14	8.02816E+14	-3.66343E+13	-4.70404E+13	5.68919E+14	2.34645E+14	7.88209E+14
285	9141516	-8.92145E+14	-1.15859E+14	8.9466E+14	-1.79055E+14	-9.00016E+13	3.97379E+14	8.04035E+14	-3.66633E+14	-4.68089E+14	5.6698E+14	2.35694E+14	7.89292E+13
286	9141516	-8.85558E+14	-1.17356E+13	8.96097E+14	-1.79771E+14	-8.99624E+14	3.97944E+14	8.05172E+14	-3.6697E+13	-4.65866E+14	5.65137E+14	2.36664E+14	7.90323E+14
287	9141516	-8.95139E+14	-1.15859E+14	8.93402E+14	-1.80427E+13	-8.99219E+14	3.98562E+14	8.06316E+14	-3.67284E+14	-4.63634E+14	5.63294E+14	2.37715E+14	7.91323E+14
288	9141516	-8.97534E+14	-1.17595E+14	8966953125	-1.81126E+14	-8.98835E+14	3.99109E+13	8.07495E+14	-3.67572E+14	-4.61349E+14	5.61378E+14	2.38716E+14	7.92382E+13
289	9141516	-8.87355E+14	-1.17236E+14	8.96456E+14	-1.81822E+14	-8.98446E+14	3.99669E+14	8.08665E+13	-3.67863E+14	-4.59061E+14	5.59465E+14	2.39731E+14	7.93428E+14
290	9141516	-8.93342E+13	-1.15859E+14	8.96995E+14	-1.82568E+13	-8.98066E+14	4.00182E+14	8.09784E+14	-3.68185E+14	-4.56825E+14	5.576E+14	2.4066E+14	7.94459E+13
291	9141516	-9.13101E+14	-1.1532E+14	8.91486E+14	-1.83228E+14	-8.97683E+14	4.0074E+14	8.11013E+14	-3.68413E+14	-4.54455E+14	5.55595E+14	2.41737E+14	7.95536E+14
292	9141516	-8.95139E+14	-1.16877E+11	8.93821E+12	-1.83948E+14	-8.973E+14	4.01267E+14	8.12185E+14	-3.68689E+14	-4.52132E+14	5.53641E+14	2.42734E+14	7.96594E+13
293	9141516	-8.85558E+14	-1.16937E+14	8.946E+14	-1.84715E+14	-8.96919E+14	4.01767E+14	8.13307E+14	-3.69004E+14	-4.49854E+14	5.51736E+14	2.43665E+14	7.97631E+13
294	9141516	-8.90349E+14	-1.16039E+14	8.96037E+14	-1.85458E+14	-8.96543E+14	4.02263E+14	8.1452E+14	-3.69253E+14	-4.47448E+13	5.49693E+14	2.44669E+14	7.98733E+14
295	9141516	-8.90349E+14	-1.16518E+14	8.88852E+14	-1.86225E+12	-8.96163E+14	4.02756E+14	8.15651E+14	-3.69549E+14	-4.45136E+14	5.47753E+13	2.45613E+14	7.99776E+14
296	9141516	-8.78373E+14	-1.17655E+14	8.946E+14	-1.86905E+14	-8.95771E+14	4.03312E+12	8.16868E+14	-3.6977E+14	-4.42715E+14	5.45704E+14	2.46707E+14	8.00839E+14
297	9141516	-8.85558E+14	-1.1562E+14	8.92684E+14	-1.87755E+14	-8.95409E+14	4.03721E+13	8.17998E+14	-3.70075E+14	-4.40367E+14	5.43716E+14	2.47562E+14	8.01926E+14
298	9141516	-8.98731E+14	-1.152E+14	8.95737E+12	-1.88528E+13	-8.95038E+14	4.04184E+14	8.19171E+14	-3.70327E+14	-4.37969E+14	5.41678E+14	2.48526E+14	8.03006E+14
299	9141516	-8.72985E+14	-1.17895E+14	8.93821E+12	-1.89307E+14	-8.94655E+13	4.04668E+14	8.20302E+14	-3.70608E+14	-4.35608E+14	5.39692E+14	2.49486E+14	8.04046E+14
300	9141516	-8.84361E+14	-1.16937E+14	8.92983E+14	-1.90113E+13	-8.94283E+14	4.0511E+14	8.21451E+14	-3.70874E+14	-4.3321E+14	5.37657E+14	2.50419E+14	8.05118E+14
301	9141516	-8.86157E+12	-1.16338E+14	8.94061E+14	-1.9094E+14	-8.93911E+14	4.05542E+14	8.22554E+14	-3.71167E+13	-4.3086E+14	5.35675E+14	2.51312E+14	8.06161E+14
302	9141516	-8.97534E+14	-1.16218E+14	8.92145E+14	-1.91731E+14	-8.93548E+14	4.0597E+14	8.23706E+13	-3.71404E+14	-4.28448E+14	5.33618E+14	2.52253E+14	8.0723E+14
303	9141516	-8.7059E+14	-1.17057E+14	8.9921E+14	-1.92583E+14	-8.93173E+14	4.0639E+14	8.24786E+14	-3.7171E+14	-4.26098E+14	5.31638E+14	2.53126E+14	8.08262E+13
304	9141516	-8.86157E+12	-1.16398E+13	8.95079E+14	-1.9338E+14	-8.92801E+14	4.0683E+14	8.25915E+14	-3.71958E+14	-4.23688E+14	5.29593E+14	2.54074E+14	8.09307E+14
305	9141516	-8.77176E+14	-1.16518E+14	8.96276E+14	-1.94176E+14	-8.92428E+14	4.0727E+14	8.27038E+14	-3.72203E+14	-4.21276E+14	5.27545E+13	2.55025E+14	8.10344E+14
306	9141516	-8.95139E+14	-1.16997E+14	8.96396E+14	-1.94998E+14	-8.92062E+14	4.07678E+14	8.28168E+14	-3.72443E+14	-4.18837E+14	5.25466E+14	2.55953E+14	8.11402E+13
307	9141516	-8.7059E+14	-1.16877E+11	8.96037E+14	-1.95889E+14	-8.91701E+13	4.0804E+14	8.29253E+14	-3.72728E+14	-4.1643E+14	5.23419E+14	2.56794E+14	8.12459E+14
308	9141516	-8.86756E+14	-1.14841E+14	8.92085E+14	-1.96657E+14	-8.91311E+14	4.08522E+14	8.30344E+14	-3.72971E+14	-4.1403E+14	5.21397E+14	2.57792E+14	8.13443E+14
309	9141516	-8.8975E+14	-1.16398E+13	8.97653E+12	-1.97497E+14	-8.9094E+14	4.08926E+14	8.31434E+14	-3.73226E+14	-4.11606E+14	5.19338E+14	2.58704E+14	8.14469E+14
310	9141516	-9.07114E+14	-1.16817E+14	8.94779E+11	-1.98372E+14	-8.90575E+14	4.09298E+14	8.3249E+14	-3.73503E+14	-4.09213E+14	5.17309E+14	2.5956E+14	8.15487E+14
311	9141516	-8.92145E+14	-1.16039E+14	8.9436E+14	-1.9926E+14	-8.90214E+14	4.09651E+14	8.33553E+14	-3.73773E+14	-4.06795E+14	5.15252E+14	2.60408E+14	8.16519E+14
312	9141516	-8.91546E+14	-1.15979E+14	8.92923E+14	-2.0013E+14	-8.89857E+14	4.10004E+14	8.34623E+14	-3.74021E+14	-4.04366E+14	5.13178E+14	2.61273E+14	8.17548E+14
313	9141516	-8.83762E+13	-1.155E+14	8.96336E+14	-2.01082E+13	-8.89504E+14	4.10303E+13	8.3561E+14	-3.74341E+14	-4.02026E+14	5.11197E+14	2.62013E+14	8.18552E+14
314	9141516	-8.87355E+14	-1.16398E+13	8.93342E+13	-2.01957E+13	-8.89134E+14	4.10675E+14	8.36627E+14	-3.74619E+14	-3.99644E+14	5.09184E+14	2.62871E+12	8.19531E+14
315	9141516	-8.86157E+12	-1.1556E+14	8.95677E+14	-2.02862E+14	-8.88761E+14	4.11037E+14	8.37637E+14	-3.74913E+14	-3.97246E+14	5.0716E+14	2.63714E+14	8.20514E+14
316	9141516	-8813671875	-1.14721E+14	8.92923E+14	-2.03743E+14	-8.88406E+14	4.11368E+14	8.38714E+14	-3.75135E+14	-3.94757E+14	5.05023E+14	2.64591E+14	8.21549E+14
317	9141516	-8.82565E+14	-1.16518E+14	8.9454E+14	-2.04622E+14	-8.8805E+14	4.117E+14	8.39786E+14	-3.75354E+14	-3.92261E+14	5.02881E+14	2.65474E+14	8.22578E+13
318	9141516	-8.74182E+13	-1.17895E+14	8.93702E+14	-2.05509E+14	-8.8769E+14	4.12035E+14	8.40827E+13	-3.75591E+14	-3.89798E+14	5.00776E+14	2.66343E+14	8.2358E+14
319	9141516	-8.91546E+14	-1.15021E+14	8.95498E+14	-2.06414E+14	-8.87336E+14	4.12344E+14	8.4188E+14	-3.75817E+14	-3.87298E+14	4.9863E+14	2.672E+14	8.24605E+14
320	9141516	-8.93941E+14	-1.15979E+14	8.98013E+14	-2.07282E+14	-8.86962E+14	4.12713E+14	8.42907E+14	-3.76051E+14	-3.84828E+14	4.96529E+14	2.68111E+14	8.25576E+14
321	9141516	-8.97534E+14	-1.16218E+14	8.94061E+14	-2.08185E+14	-8.86604E+14	4.13027E+14	8.43946E+14	-3.76275E+14	-3.82324E+13	4.94383E+14	2.68978E+14	8.26581E+14
322	9141516	-8.77775E+14	-1.1544E+13	8.93103E+14	-2.09087E+14	-8.86238E+14	4.13359E+14	8.44974E+14	-3.76506E+14	-3.79819E+14	4.92242E+14	2.69862E+14	8.2757E+14
323	9141516	-8.7059E+14	-1.15739E+14	8.95677E+14	-2.10018E+14	-8.8588E+14	4.13653E+14	8.45977E+14	-3.7675E+14	-3.77334E+14	4.90117E+14	2.70694E+14	8.28559E+14
324	9141516	-8.82565E+14	-1.18134E+14	8.93702E+14	-2.10944E+14	-8.85529E+14	4.13933E+14	8.46985E+14	-3.76978E+14	-3.7484E+14	4.87975E+14	2.71525E+14	8.29551E+14
325	9141516	-8.93941E+14	-1.17296E+14	8.96216E+13	-2.11901E+14	-8.85193E+14	4.14163E+14	8.48019E+14	-3.77186E+14	-3.72283E+14	4.85759E+14	2.7233E+14	8.30587E+14
326	9141516	-8.8496E+14	-1.14901E+14	8.95737E+12	-2.12896E+14	-8.84847E+14	4.14392E+14	8.48973E+14	-3.7746E+14	-3.69823E+14	4.83653E+14	2.73074E+14	8.31571E+14
327	9141516	-8.96935E+14	-1.16398E+13	8.92384E+13	-2.13848E+14	-8.84478E+13	4.14691E+14	8.49884E+14	-3.77752E+14	-3.67424E+14	4.81629E+14	2.73866E+14	8.32485E+14
328	9141516	-8.81966E+14	-1.15679E+14	8.97653E+12	-2.14802E+14	-8.84138E+14	4.14922E+14	8.50891E+14	-3.77958E+14	-3.64873E+14	4.79421E+14	2.74678E+14	8.33491E+14
329	9141516	-8.86756E+14	-1.16877E+11	8.943E+13	-2.1574E+14	-8.83785E+14	4.15188E+14	8.51862E+14	-3.78182E+14	-3.62368E+12	4.77271E+14	2.75505E+14	8.34451E+14
330	9141516	-8.86756E+14	-1.17536E+14	8.92085E+14	-2.16765E+14	-8.83453E+13	4.15359E+14	8.52804E+14	-3.78441E+14	-3.59873E+14	4.7512E+14	2.76212E+14	8.35445E+14
331	9141516	-8.95139E+14	-1.17476E+14	8.95558E+14	-2.17717E+14	-8.83098E+14	4.15616E+14	8.53738E+13	-3.78681E+14	-3.57396E+14	4.73002E+14	2.77016E+14	8.3638E+14
332	9141516	-8.74182E+13	-1.17895E+14	8.96156E+14	-2.18662E+14	-8.82739E+14	4.15883E+14	8.54679E+13	-3.78912E+14	-3.54894E+14	4.70861E+14	2.77845E+14	8.37312E+14
333	9141516	-8.80768E+14	-1.17476E+14	8.93702E+14	-2.19634E+14	-8.82392E+14	4.16107E+14	8.55642E+14	-3.79125E+13	-3.52335E+14	4.68655E+14	2.78654E+14	8.38281E+14
334	9141516	-8.92145E+14	-1.18074E+14	8.94121E+14	-2.20659E+14	-8.82057E+14	4.16275E+14	8.56557E+13	-3.79378E+14	-3.49832E+14	4.66498E+14	2.7937E+13	8.39245E+14
335	9141516	-90052734375	-1.15141E+14	8.95677E+14	-2.21693E+14	-8.81731E+14	4.16415E+14	8.57448E+14	-3.79636E+14	-3.47361E+14	4.64365E+13	2.80047E+14	8.40202E+14
336	9141516	-8.83762E+13	-1.17775E+14	8.95079E+14	-2.22708E+14	-8.81393E+14	4.16591E+13	8.58352E+14	-3.79881E+14	-3.44851E+14	4.62204E+14	2.8078E+14	8.41148E+14
337	9141516	-8.92145E+14	-1.1532E+14	8.95139E+14	-2.23692E+14	-8.81048E+14	4.16793E+14	8.59265E+14	-3.80103E+14	-3.42323E+14	4.60027E+14	2.81561E+14	8.4208E+14
338	9141516	-8.84361E+14	-1.17416E+14	8.92744E+14	-2.24689E+14	-8.80708E+14	4.16976E+14	8.60151E+14	-3.80338E+14	-3.39828E+14	4.57881E+14	2.82307E+14	8.42999E+14
339	9141516	-8.84361E+14	-1.16099E+14	89286328125	-2.25648E+14	-8.80356E+14	4.172E+14	8.61062E+14	-3.80542E+14	-3.37283E+14	4.55692E+14	2.83128E+14	8.4391E+13
340	9141516	-9.01725E+14	-1.17416E+14	8.95318E+14	-2.26591E+14	-8.79982E+14	4.17478E+14	8.61921E+13	-3.8078E+13	-3.34811E+14	4.53595E+12	2.83968E+14	8.44757E+14
341	9141516	-8.8496E+14	-1.15141E+14	8.93342E+13	-2.27637E+14	-8.79651E+14	4.17608E+14	8.62789E+14	-3.81025E+13	-3.32288E+14	4.51417E+14	2.84666E+14	8.45688E+14
342	9141516	-8.92145E+14	-1.17476E+14	8.96097E+14	-2.28642E+14	-8.79305E+14	4.17787E+14	8.63656E+13	-3.81255E+14	-3.29763E+14	4.49245E+14	2.85427E+14	8.46587E+14
343	9141516	-8.80768E+14	-1.15799E+14	8.97474E+14	-2.29659E+14	-8.78957E+14	4.17961E+14	8.64503E+14	-3.81497E+14	-3.27254E+14	4.47093E+14	2.86171E+14	8.47475E+14
344	9141516	-8.89151E+14	-1.14901E+14	8.92265E+14	-2.30693E+14	-8.78616E+13	4.18109E+14	8.65329E+14	-3.81751E+13	-3.24765E+14	4.44957E+14	2.86881E+14	8.48359E+14
345	9141516	-9.05916E+14	-1.16757E+14	8.91786E+14	-2.31746E+13	-8.78298E+14	4.18195E+14	8.66183E+14	-3.81972E+14	-3.22219E+14	4.42743E+14	2.8756E+13	8.49287E+14
346	9141516	-8.83762E+13	-1.15081E+14	8.92324E+14	-2.32771E+13	-8.7797E+14	4.18313E+14	8.67028E+14	-3.82184E+14	-3.19684E+14	4.40546E+14	2.88276E+14	8.50186E+14
347	9141516	-8.98731E+14	-1.17476E+14	8.93582E+14	-2.3378E+14	-8.77628E+13	4.18469E+14	8.67883E+14	-3.82388E+14	-3.17111E+14	4.38323E+14	2.89048E+14	8.51073E+14
348	9141516	-8.91546E+14	-1.17835E+12	8.97234E+14	-2.34847E+14	-8.77294E+14	4.18571E+14	8.68679E+14	-3.82645E+14	-3.14609E+13	4.36169E+14	2.89719E+14	8.5195E+14
349	9141516	-8.83163E+14	-1.15859E+14	8.92324E+14	-2.35889E+14	-8.76961E+14	4.18683E+12	8.69483E+14	-3.82879E+14	-3.12094E+14	4.34E+13	2.90418E+14	8.5282E+14
350	9141516	-8.88552E+13	-1.16218E+14	8.97833E+14	-2.36925E+14	-8.76626E+14	4.18801E+14	8.70278E+14	-3.83111E+14	-3.09584E+14	4.31836E+12	2.91125E+14	8.53677E+14
351	9141516	-8.87953E+14	-1.16099E+14	8.92624E+14	-2.37994E+14	-8.76291E+14	4.18895E+14	8.7106E+14	-3.8336E+13	-3.07065E+14	4.29666E+14	2.91803E+14	8.54539E+14
352	9141516	-8.77176E+14	-1.16338E+14	8.92265E+14	-2.39062E+14	-8.75948E+14	4.19004E+13	8.71811E+14	-3.8363E+14	-3.04587E+14	4.27544E+14	2.92477E+14	8.55373E+14
353	9141516	-9.04719E+14	-1.17715E+14	8.93163E+14	-2.4016E+14	-8.75633E+14	4.19035E+14	8.72578E+14	-3.83878E+14	-3.0207E+13	4.2536E+14	2.93095E+14	8.5625E+14
354	9141516	-9.07712E+13	-1.16218E+14	8.93941E+14	-2.41207E+14	-8.75296E+14	4.19138E+14	8.73344E+14	-3.8411E+14	-2.9955E+14	4.2319E+14	2.93798E+14	8.57084E+14
355	9141516	-8.92744E+14	-1.18254E+14	9.06934E+14	-2.42372E+14	-8.74983E+14	4.19118E+14	8.74099E+14	-3.84383E+14	-2.96986E+14	4.2096E+14	2.9437E+14	8.57986E+14
356	9141516	-8.82565E+14	-1.12446E+14	8.82265E+14	-2.43464E+14	-8.74655E+13	4.19171E+13	8.7484E+14	-3.84636E+14	-2.94466E+14	4.18784E+14	2.95016E+14	8.58828E+14
357	9141516	-9.23879E+14	-1.18314E+13	9.06874E+14	-2.44572E+13	-8.74328E+14	4.19207E+14	8.75581E+14	-3.84888E+14	-2.91922E+14	4.16584E+14	2.95653E+14	8.59678E+14
358	9141516	-8.8975E+14	-1.13404E+14	8.89091E+14	-2.45633E+14	-8.73998E+14	4.19276E+14	8.76317E+14	-3.85117E+14	-2.89401E+14	4.14407E+14	2.96332E+14	8.60497E+14
359	9141516	-8.72386E+14	-1.17116E+14	9.0412E+14	-2.46699E+14	-8.73665E+14	4.19343E+14	8.77056E+14	-3.85341E+13	-2.86855E+14	4.12205E+14	2.9702E+14	8.61316E+14
360	9141516	-9.0412E+14	-1.1544E+13	8.90828E+14	-2.47723E+14	-8.73324E+14	4.19451E+13	8.77782E+14	-3.85553E+14	-2.84337E+13	4.10039E+13	2.9775E+14	8.62098E+13
361	9141516	-8.92145E+14	-1.16578E+14	8.96336E+14	-2.48774E+13	-8.72982E+14	4.1954E+13	8.78499E+14	-3.85778E+13	-2.81807E+14	4.07862E+14	2.98459E+14	8.62885E+14
362	9141516	-8.85558E+14	-1.14242E+14	8.9442E+14	-2.49854E+14	-8.72649E+14	4.1959E+14	8.79196E+14	-3.86019E+14	-2.79293E+14	4.05695E+14	2.99119E+14	8.63678E+14
363	9141516	-8.80768E+14	-1.16697E+14	8.90887E+14	-2.50956E+14	-8.72324E+14	4.19609E+14	8.79836E+14	-3.86301E+14	-2.76876E+14	4.03621E+14	2.99703E+14	8.64446E+14
364	9141516	-8.75978E+14	-1.14901E+14	8.92145E+14	-2.52028E+14	-8.72009E+14	4.19621E+14	8.80469E+14	-3.86561E+14	-2.7449E+13	4.01567E+14	3.00284E+14	8.65201E+14
365	9141516	-9.03521E+14	-1.17296E+14	8.97833E+14	-2.53099E+14	-8.7169E+14	4.19641E+14	8.81121E+14	-3.86804E+14	-2.72047E+14	3.99459E+14	3.00899E+14	8.65963E+14
366	9141516	-9.13101E+14	-1.18733E+14	8.97055E+14	-2.54226E+14	-8.71354E+13	4.19656E+14	8.81754E+14	-3.87091E+14	-2.69574E+13	3.9734E+14	3.01501E+14	8.66729E+14
367	9141516	-8.79571E+14	-1.17356E+13	8.90887E+14	-2.55335E+14	-8.70997E+14	4.19725E+14	8.82355E+14	-3.87402E+14	-2.6715E+14	3.95289E+14	3.02133E+14	8.67446E+14
368	9141516	-8.89151E+14	-1.14662E+14	8.96216E+13	-2.56461E+14	-8.70668E+14	4.1972E+14	8.82965E+14	-3.87689E+14	-2.64706E+14	3.93192E+14	3.02712E+14	8.68197E+13
369	9141516	-8813671875	-1.15919E+12	8.95198E+14	-2.57659E+14	-8.7036E+14	4.19625E+14	8.83534E+14	-3.88024E+14	-2.62307E+14	3.91126E+14	3.03167E+14	8.68971E+14
370	9141516	-8.72985E+14	-1.1538E+14	8.95079E+14	-2.58839E+14	-8.70041E+14	4.1956E+14	8.84119E+14	-3.88339E+13	-2.59857E+14	3.89018E+14	3.0368E+14	8.69738E+14
371	9141516	-8.72386E+14	-1.18254E+14	8.96875E+14	-2.59985E+14	-8.69721E+14	4.19516E+14	8.84701E+14	-3.88634E+14	-2.57425E+14	3.86926E+14	3.0422E+14	8.70482E+14
372	9141516	-8.90947E+11	-1.17536E+14	8.98611E+11	-2.61104E+14	-8.69398E+14	4.1949E+14	8.85333E+14	-3.88872E+14	-2.54881E+14	3.84721E+14	3.04838E+14	8.71243E+14
373	9141516	-8.66997E+12	-1.1532E+14	8.93402E+14	-2.62242E+14	-8.69083E+14	4.19432E+14	8.85908E+14	-3.89152E+14	-2.52443E+14	3.82616E+14	3.05377E+14	8.7198E+14
374	9141516	-8.87355E+14	-1.17595E+14	8.91067E+14	-2.6338E+14	-8.68769E+14	4.19371E+14	8.86459E+14	-3.89445E+13	-2.50047E+14	3.80555E+14	3.05898E+14	8.72699E+14
375	9141516	-8.40652E+13	-1.17595E+14	9.0412E+14	-2.6453E+14	-8.68453E+14	4.19301E+14	8.87036E+14	-3.89717E+13	-2.47564E+14	3.78407E+14	3.06447E+14	8.73441E+14
376	9141516	-8.96935E+14	-1.17476E+14	8.9436E+14	-2.65626E+13	-8.68117E+14	4.19304E+14	8.87623E+14	-3.89961E+14	-2.45062E+14	3.76255E+14	3.07089E+14	8.74144E+14
377	9141516	-8.77775E+14	-1.17176E+14	8.92085E+14	-2.66757E+14	-8.67804E+13	4.19235E+14	8.88202E+14	-3.90208E+14	-2.4256E+14	3.74083E+14	3.0766E+14	8.74876E+13
378	9141516	-8.72386E+14	-11879296875	8.88792E+14	-2.67876E+14	-8.67491E+13	4.19169E+14	8.88761E+14	-3.90458E+14	-2.40096E+14	3.71948E+14	3.08225E+14	8.75587E+14
379	9141516	-8.78972E+13	-1.16757E+14	8.96815E+14	-2.69039E+14	-8.67176E+14	4.19075E+14	8.89268E+14	-3.90767E+14	-2.37704E+14	3.69892E+14	3.08718E+14	8.76284E+14
380	9141516	-8.78373E+14	-1.16937E+14	8.93642E+14	-2.70215E+14	-8.66874E+14	4.18944E+14	8.89783E+14	-3.91062E+14	-2.35279E+14	3.6779E+14	3.09193E+13	8.77001E+14
381	9141516	-8.78373E+14	-1.1538E+14	8.92025E+14	-2.71396E+14	-8.66577E+14	4.18795E+14	8.90293E+14	-3.91355E+14	-2.32852E+14	3.65682E+14	3.09655E+14	8.77719E+14
382	9141516	-86220703125	-1.15859E+14	8966953125	-2.72515E+14	-8.66251E+14	4.18741E+14	8.90795E+14	-3.91634E+14	-2.30449E+14	3.6362E+14	3.10212E+14	8.78378E+13
383	9141516	-8.81966E+14	-1.17416E+14	8.97773E+14	-2.73653E+14	-8.6593E+14	4.18663E+14	8.91296E+14	-3.91914E+14	-2.28022E+14	3.61531E+13	3.10754E+14	8.79049E+14
384	9141516	-8.72985E+14	-1.155E+14	8.95438E+14	-2.74786E+14	-8.65595E+14	4.18614E+14	8.91783E+14	-3.92205E+14	-2.25604E+14	3.59465E+14	3.1132E+14	8.79696E+14
385	9141516	-8.95139E+14	-1.14123E+14	8.92684E+14	-2.75977E+14	-8.65288E+14	4.18465E+14	8.92247E+14	-3.92521E+14	-2.23207E+14	3.57395E+13	3.11774E+14	8.80378E+14
386	9141516	-8.66398E+14	-1.1556E+14	8.92564E+14	-2.77117E+14	-8.64975E+14	4.18359E+14	8.92715E+14	-3.92807E+13	-2.20821E+14	3.55339E+14	3.12282E+14	8.8103E+14
387	9141516	-8.72386E+14	-1.18733E+14	9.01545E+14	-2.783E+14	-8.64661E+14	4.18223E+14	8.93162E+14	-3.93127E+14	-2.18435E+14	3.53287E+14	3.12751E+14	8.81689E+14
388	9141516	-8.69392E+13	-1.155E+14	89286328125	-2.79485E+14	-8.64358E+14	4.18058E+13	8.93629E+14	-3.93416E+13	-2.15988E+14	3.51162E+14	3.13224E+14	8.8237E+14
389	9141516	-8.7538E+14	-1.17775E+14	8.99988E+14	-2.80688E+14	-8.64056E+13	4.17878E+14	8.94056E+14	-3.93742E+14	-2.13613E+14	3.4911E+14	3.13647E+14	8.83033E+14
390	9141516	-8.78972E+13	-1.16458E+14	8.90229E+14	-2.81886E+14	-8.6374E+14	4.17724E+14	8.94474E+14	-3.94075E+14	-2.11236E+13	3.47068E+14	3.14099E+14	8.83677E+12
391	9141516	-8.86756E+14	-1.16099E+14	8.94839E+14	-2.83079E+14	-8.63429E+14	4.17561E+14	8.94895E+14	-3.94394E+14	-2.08846E+14	3.45007E+14	3.14553E+14	8.84323E+14
392	9141516	-8.7538E+14	-1.17057E+14	8.93223E+14	-2.84265E+14	-8.63094E+14	4.17447E+14	8.95277E+14	-3.94751E+14	-2.06521E+14	3.43034E+14	3.15025E+14	8.84922E+11
393	9141516	-8.71188E+14	-1.16757E+14	8.96935E+14	-2.8547E+13	-8.62781E+14	4.17272E+14	8.95664E+14	-3.95095E+14	-2.04172E+14	3.41018E+14	3.1545E+14	8.8555E+14
394	9141516	-8.87953E+14	-1.16278E+14	8.94001E+14	-2.86666E+14	-8.62465E+14	4.17106E+14	8.96089E+14	-3.95394E+14	-2.01712E+14	3.3889E+14	3.1594E+14	8.86191E+14
395	9141516	-8.54423E+14	-1.16158E+14	8.95558E+14	-2.87874E+13	-8.62169E+14	4.16886E+14	8.96456E+14	-3.95737E+14	-1.99396E+14	3.3689E+14	3.16319E+14	8.86819E+13
396	9141516	-8.77176E+14	-1.16637E+14	8.98791E+14	-2.89126E+14	-8.61857E+14	4.16663E+14	8.96802E+14	-3.9612E+14	-1.97066E+14	3.34891E+14	3.16687E+14	8.87444E+14
397	9141516	-8.86157E+12	-1.17296E+14	8.9442E+14	-2.90287E+14	-8.6152E+14	4.16554E+14	8.97182E+14	-3.96436E+14	-1.94687E+14	3.32864E+14	3.17209E+14	8.8802E+14
398	9141516	-8.71787E+11	-1.16937E+14	8.9436E+14	-2.91515E+14	-8.61215E+14	4.16326E+12	8.97526E+14	-3.96795E+13	-1.92356E+14	3.30856E+14	3.17589E+14	8.88635E+14
399	9141516	-8.68195E+14	-1.18015E+14	8.9454E+14	-2.92705E+14	-8.60876E+14	4.16193E+14	8.97848E+14	-3.97167E+14	-1.90072E+14	3.28927E+14	3.18043E+14	8.89188E+14
400	9141516	-8.84361E+14	-1.16398E+13	8.93103E+14	-2.93928E+14	-8.60552E+13	4.16E+14	8.98173E+13	-3.97537E+14	-1.87748E+14	3.26942E+14	3.18455E+14	8.89772E+14
401	9141516	-8.58615E+14	-1.16458E+14	8.90229E+14	-2.95105E+14	-8.60223E+14	4.15848E+13	8.98496E+14	-3.97886E+14	-1.85452E+14	3.2499E+14	3.1891E+14	8.90325E+14
402	9141516	-8.80768E+14	-1.19332E+14	9.00767E+14	-2.96365E+13	-8.59925E+14	4.15568E+14	8.98813E+14	-3.98256E+14	-1.83107E+14	3.22961E+14	3.19251E+13	8.9094E+14
403	9141516	-8.74182E+13	-1.16637E+14	8.8951E+13	-2.97607E+14	-8.59602E+14	4.15349E+14	8.99094E+14	-3.98658E+14	-1.80835E+14	3.21028E+14	3.1962E+14	8.91507E+14
404	9141516	-8.83762E+13	-1.17236E+14	8.98072E+14	-2.98805E+14	-8.59272E+14	4.15172E+14	8.99389E+13	-3.99024E+14	-1.78546E+14	3.19083E+14	3.20051E+14	8.9205E+13
405	9141516	-8.75978E+14	-1.16937E+14	8.95797E+14	-3.00021E+14	-8.58946E+14	4.14969E+14	8.99686E+14	-3.99387E+14	-1.76223E+14	3.17099E+14	3.20471E+14	8.92607E+13
406	9141516	-8.54423E+14	-1.1556E+14	8.91067E+14	-3.01233E+14	-8.58621E+14	4.14762E+14	8.99974E+14	-3.99751E+14	-1.73913E+14	3.15127E+14	3.20887E+14	8.93155E+14
407	9141516	-8.54423E+14	-1.16039E+14	8.91965E+14	-3.02449E+14	-8.58271E+14	4.14602E+14	9.00207E+14	-4.00177E+13	-1.71715E+14	3.13292E+14	3.21292E+14	8.93655E+14
408	9141516	-8.7538E+14	-1.16997E+14	8.97474E+14	-3.03653E+14	-8.57948E+14	4.14391E+14	9.00439E+14	-4.00581E+14	-1.69543E+14	3.11456E+14	3.21652E+14	8.94167E+13
409	9141516	-8.75978E+14	-1.1562E+14	8.96995E+14	-3.04884E+14	-8.57613E+13	4.14181E+14	9.00703E+13	-4.00962E+14	-1.67224E+14	3.09485E+14	3.2207E+14	8.94701E+14
410	9141516	-8.73583E+14	-1.20829E+14	8.8975E+14	-3.06078E+14	-8.57262E+14	4.14027E+13	9.00922E+14	-4.01374E+14	-1.65038E+14	3.07661E+14	3.22491E+14	8.95178E+14
411	9141516	-8.54423E+14	-1.17176E+14	8.97833E+14	-3.07298E+14	-8.56943E+14	4.13784E+14	9.01155E+14	-4.01764E+14	-1.62804E+14	3.05757E+13	3.22854E+14	8.957E+14
412	9141516	-8.8017E+14	-1.16997E+14	8.95378E+14	-3.08513E+14	-8.56625E+13	4.13537E+14	9.01394E+14	-4.02138E+14	-1.60541E+14	3.03823E+14	3.23231E+14	8.96222E+13
413	9141516	-8.6101E+14	-1.14602E+14	8.91606E+14	-3.0976E+14	-8.56296E+14	4.13287E+13	9.01603E+14	-4.02555E+14	-1.58306E+14	3.01928E+12	3.23584E+14	8.96735E+13
414	9141516	-8.87355E+14	-1.19032E+14	9.03282E+14	-3.10999E+13	-8.5598E+14	4.1301E+14	9.01802E+14	-4.02969E+14	-1.56107E+14	3.00055E+14	3.23904E+14	8.97248E+14
415	9141516	-86220703125	-1.14721E+14	8.92205E+14	-3.12224E+14	-8.5564E+14	4.12791E+13	9.02019E+14	-4.0336E+14	-1.53829E+14	2.98126E+14	3.24316E+14	8.97742E+14
416	9141516	-8.69392E+13	-1.15799E+14	8.92923E+14	-3.13446E+14	-8.5531E+14	4.12549E+14	9.02206E+14	-4.03771E+14	-1.51634E+14	2.96269E+14	3.24675E+14	8.98226E+14
417	9141516	-8.84361E+14	-1.16458E+14	8.946E+14	-3.14651E+14	-8.5495E+14	4.12378E+13	9.0238E+14	-4.04195E+14	-1.49456E+14	2.94458E+14	3.25095E+14	8.9867E+14
418	9141516	-8813671875	-1.16278E+14	8.95977E+14	-3.15872E+14	-8.54609E+14	4.12151E+14	9.02549E+14	-4.04617E+14	-1.47275E+14	2.92626E+14	3.25466E+14	8.99134E+14
419	9141516	-8.74781E+14	-1.15021E+14	8.93821E+12	-3.17121E+13	-8.54289E+14	4.11856E+14	9.02701E+14	-4.05056E+14	-1.45122E+13	2.908E+14	3.25761E+14	8.99619E+14
420	9141516	-8.96336E+14	-1.16218E+14	8.95917E+14	-3.1839E+14	-8.53978E+14	4.1152E+14	9.0285E+14	-4.05496E+14	-1.42949E+14	2.88945E+14	3.26028E+14	9.0012E+12
421	9141516	-8.86756E+14	-1.14482E+13	8.77116E+14	-3.19584E+14	-8.53621E+14	4.11336E+14	9.03002E+14	-4.05914E+14	-1.40788E+14	2.87147E+14	3.26444E+14	9.00545E+14
422	9141516	-8.52627E+11	-1.17775E+14	9.0418E+14	-3.2085E+14	-8.53313E+14	4.10989E+14	9.03154E+14	-4.06335E+14	-1.38579E+14	2.85251E+14	3.26723E+14	9.01046E+14
423	9141516	-9.10706E+14	-1.14662E+14	8.85798E+14	-3.22084E+14	-8.53007E+13	4.10659E+13	9.03312E+14	-4.06731E+14	-1.36372E+14	2.83353E+14	3.2703E+14	9.01533E+14
424	9141516	-8.65201E+14	-1.17775E+14	9.06695E+14	-3.23328E+14	-8.52662E+14	4.10398E+14	9.03434E+14	-4.07178E+14	-1.3421E+14	2.81541E+13	3.27374E+14	9.01976E+14
425	9141516	-8.77775E+14	-1.15021E+14	8.87594E+13	-3.24561E+14	-8.52366E+14	4.10039E+14	9.0357E+14	-4.07583E+14	-1.3205E+14	2.7968E+14	3.2764E+14	9.02458E+14
426	9141516	-86220703125	-1.17955E+14	8.95857E+14	-3.25832E+14	-8.5204E+14	4.0971E+14	9.03659E+14	-4.0806E+14	-1.2995E+14	2.77909E+12	3.27896E+14	9.02912E+14
427	9141516	-8.77176E+14	-1.18374E+14	8.90109E+14	-3.27104E+14	-8.51701E+14	4.09399E+14	9.03738E+14	-4.08547E+14	-1.27855E+13	2.76153E+14	3.28168E+14	9.03352E+14
428	9141516	-8.46639E+14	-1.17955E+14	8.96456E+14	-3.28343E+14	-8.51347E+13	4.09144E+14	9.03811E+14	-4.09028E+14	-1.25785E+14	2.74438E+14	3.28489E+14	9.03758E+14
429	9141516	-8.658E+14	-1.17895E+14	8.88492E+14	-3.29608E+13	-8.50986E+14	4.08878E+14	9.0388E+14	-4.09518E+14	-1.23675E+14	2.72688E+14	3.28813E+14	9.0417E+14
430	9141516	-8.84361E+14	-1.16458E+14	8.97234E+14	-3.30867E+14	-8.50657E+14	4.08546E+14	9.03952E+14	-4.09988E+14	-1.21579E+14	2.70921E+12	3.29079E+14	9.04604E+14
431	9141516	-8.80768E+14	-1.16398E+13	8.95378E+14	-3.32118E+14	-8.50323E+14	4.08226E+14	9.04016E+14	-4.10458E+14	-1.19497E+14	2.6917E+14	3.29356E+14	9.05026E+14
432	9141516	-8.71188E+14	-1.15859E+14	88903125	-3.33349E+13	-8.4998E+14	4.07937E+14	9.04051E+13	-4.10953E+14	-1.17512E+14	2.67526E+14	3.29623E+13	9.05416E+14
433	9141516	-8.73583E+14	-1.18314E+13	9.08371E+14	-3.34598E+14	-8.49644E+14	4.07613E+14	9.04124E+14	-4.114E+14	-1.15368E+14	2.65713E+14	3.29931E+14	9.05838E+13
434	9141516	-8.67596E+14	-1.14422E+14	8.82804E+13	-3.358E+14	-8.49283E+14	4.07378E+14	9.04196E+14	-4.11831E+14	-1.13242E+14	2.63945E+14	3.30323E+14	9.06212E+14
435	9141516	-8.77775E+14	-1.15919E+12	8.92803E+14	-3.37057E+14	-8.48947E+14	4.07041E+14	9.04212E+14	-4.12339E+14	-1.1125E+14	2.62284E+13	3.30554E+14	9.0661E+13
436	9141516	-8.65201E+14	-1.17057E+14	8.93103E+14	-3.38332E+14	-8.48603E+13	4.067E+14	9.04217E+14	-4.12863E+14	-1.0925E+14	2.60621E+14	3.30782E+14	9.07006E+14
437	9141516	-8.63405E+14	-1.17835E+12	8.94061E+14	-3.39606E+14	-8.48273E+14	4.06326E+14	9.0423E+14	-4.13366E+13	-1.07219E+14	2.58913E+14	3.31E+14	9.07416E+14
438	9141516	-8.76577E+12	-1.16398E+13	89286328125	-3.40849E+14	-8.47924E+14	4.06013E+14	9.04253E+14	-4.13845E+14	-1.05158E+14	2.57193E+14	3.31296E+14	9.07797E+14
439	9141516	-8.87355E+14	-1.155E+14	8.89271E+14	-3.42119E+14	-8.47585E+14	4.05653E+14	9.04227E+14	-4.14387E+14	-1.0323E+14	2.55593E+13	3.31485E+14	9.08179E+14
440	9141516	-86220703125	-1.16458E+14	9.00587E+14	-3.43389E+14	-8.4723E+14	4.05321E+14	9.04198E+13	-4.14932E+14	-1.0128E+14	2.53989E+14	3.31712E+14	9.08547E+14
441	9141516	-8.60411E+14	-1.15979E+14	8.94121E+14	-3.44642E+14	-8.46858E+14	4.05036E+14	9.04169E+13	-4.15468E+14	-9.93194E+14	2.52389E+14	3.31991E+14	9.0889E+14
442	9141516	-8.66997E+12	-1.16757E+14	8.97174E+13	-3.45903E+14	-8.465E+14	4.0471E+14	9.04137E+14	-4.16001E+14	-9.73577E+14	2.50773E+14	3.32237E+14	9.09248E+14
443	9141516	-8.63405E+14	-1.17057E+14	8.92624E+14	-3.47117E+14	-8.46139E+14	4.04423E+14	9.04105E+14	-4.16516E+14	-9.54432E+14	2.49207E+14	3.32511E+14	9.09578E+14
444	9141516	-8.76577E+12	-1.15081E+14	8.99809E+14	-3.48394E+14	-8.45798E+14	4.04039E+14	9.04052E+14	-4.17065E+14	-9.35218E+14	2.47611E+14	3.3269E+13	9.09948E+14
445	9141516	-8.62806E+14	-1.15141E+14	8.96875E+14	-3.49667E+14	-8.45458E+14	4.0365E+14	9.04005E+14	-4.176E+14	-9.15719E+14	2.45984E+14	3.32882E+14	9.10319E+14
446	9141516	-8.73583E+14	-1.16817E+14	8.93163E+14	-3.50912E+14	-8.45092E+14	4.03336E+14	9.03964E+14	-4.18117E+14	-8.95921E+14	2.44355E+14	3.33162E+14	9.10656E+14
447	9141516	-8.73583E+14	-11879296875	8.98851E+14	-3.52223E+14	-8.44737E+14	4.02937E+14	9.03881E+14	-4.18704E+13	-8.76745E+14	2.42773E+14	3.33326E+14	9.11018E+14
448	9141516	-9.02324E+14	-1.15081E+14	8.96755E+14	-3.53497E+14	-8.44369E+14	4.02594E+14	9.03799E+14	-4.19274E+14	-8.57726E+14	2.41221E+14	3.33543E+14	9.11351E+14
449	9141516	-8.71188E+14	-1.14781E+14	8.88193E+14	-3.54786E+14	-8.44005E+14	4.02222E+14	9.03694E+14	-4.19873E+14	-8.39287E+13	2.39719E+14	3.33709E+14	9.11687E+14
450	9141516	-8.83762E+13	-1.15739E+14	9.02982E+14	-3.56083E+14	-8.43643E+12	4.01836E+14	9.03594E+14	-4.20462E+13	-8.20353E+14	2.38165E+14	3.33885E+14	9.1203E+14
451	9141516	-8.50831E+14	-1.15739E+14	8.88432E+14	-3.57378E+14	-8.43267E+14	4.01475E+14	9.03473E+14	-4.21075E+14	-8.0198E+14	2.3668E+14	3.34061E+14	9.12352E+12
452	9141516	-8.63405E+14	-1.14302E+14	8.88852E+14	-3.58651E+14	-8.42887E+14	4.01137E+13	9.03363E+14	-4.21663E+14	-7.83328E+14	2.3517E+14	3.34278E+14	9.12663E+14
453	9141516	-8.73583E+14	-1.17835E+12	8.91965E+14	-3.59911E+14	-8.42492E+14	4.00837E+14	9.03228E+14	-4.22279E+14	-7.65511E+14	2.33759E+14	3.34496E+14	9.12945E+14
454	9141516	-8.50831E+14	-1.16218E+14	9.03042E+14	-3.61208E+14	-8.42144E+14	4.00402E+13	9.0312E+14	-4.2285E+14	-7.46402E+14	2.32168E+14	3.3465E+14	9.13295E+14
455	9141516	-8.74781E+14	-1.13883E+14	8.88133E+14	-3.62493E+14	-8.41771E+14	4.00026E+14	9.02985E+13	-4.23457E+14	-7.28153E+14	2.30687E+14	3.34822E+14	9.13607E+14
456	9141516	-8.77176E+14	-1.16458E+14	8.92983E+14	-3.63769E+14	-8.41375E+14	3.99702E+14	9.02841E+14	-4.24072E+14	-7.09988E+13	2.29239E+14	3.3504E+14	9.13892E+14
457	9141516	-8.39454E+14	-1.16278E+14	8.9909E+13	-3.65078E+14	-8.41012E+13	3.99271E+14	9.0268E+14	-4.24709E+14	-6.92169E+14	2.27786E+14	3.35145E+14	9.14216E+14
458	9141516	-8.62806E+14	-1.15859E+14	8.91905E+12	-3.66359E+14	-8.40621E+12	3.98921E+14	9.02524E+14	-4.2533E+14	-6.74173E+14	2.26345E+14	3.35336E+14	9.14504E+14
459	9141516	-8.64602E+13	-1.14602E+14	8.93282E+14	-3.67643E+14	-8.40228E+14	3.98566E+13	9.02353E+14	-4.25969E+14	-6.56547E+14	2.24942E+14	3.3551E+14	9.14786E+14
460	9141516	-8.66997E+12	-1.16218E+14	8.95498E+14	-3.68929E+14	-8.39862E+13	3.98149E+14	9.02192E+13	-4.26581E+14	-6.38565E+14	2.23473E+14	3.35648E+14	9.15096E+13
461	9141516	-8.59213E+14	-1.16039E+14	8.93702E+14	-3.70201E+14	-8.39474E+14	3.97787E+14	9.02033E+14	-4.27186E+14	-6.20384E+14	2.22009E+14	3.3585E+14	9.15378E+14
462	9141516	-8.72985E+14	-1.16578E+14	8.94181E+14	-3.71521E+14	-8.39092E+14	3.97361E+14	9.01824E+14	-4.2787E+14	-6.03384E+14	2.20649E+13	3.35933E+14	9.15676E+14
463	9141516	-8.7059E+14	-1.14482E+13	8.94959E+14	-3.72814E+14	-8.38728E+14	3.9692E+13	9.01642E+14	-4.28498E+14	-5.85713E+14	2.19205E+14	3.36044E+14	9.15982E+14
464	9141516	-8.75978E+14	-1.16338E+14	8.97653E+12	-3.74123E+14	-8.38343E+14	3.96502E+14	9.01431E+14	-4.29172E+14	-5.68663E+14	2.17841E+14	3.36144E+14	9.16271E+14
465	9141516	-8.79571E+14	-1.16398E+13	8.95857E+14	-3.75426E+14	-8.37974E+14	3.9605E+14	9.01227E+14	-4.29826E+14	-5.5142E+14	2.1644E+14	3.36229E+14	9.16572E+14
466	9141516	-8.66398E+14	-1.16578E+14	8.94779E+11	-3.76714E+14	-8.37588E+14	3.95643E+14	9.01011E+14	-4.30491E+14	-5.34592E+14	2.15097E+14	3.36339E+14	9.16847E+14
467	9141516	-8.7538E+14	-1.1538E+14	8.97833E+14	-3.78E+14	-8.37212E+14	3.95212E+14	9.00805E+14	-4.31132E+14	-5.1731E+14	2.13699E+14	3.36455E+14	9.17132E+14
468	9141516	-8.66398E+14	-1.17176E+14	8.94719E+14	-3.79278E+14	-8.36829E+14	3.94798E+14	9.00596E+14	-4.31771E+14	-5.00069E+14	2.1231E+14	3.36587E+14	9.17406E+13
469	9141516	-8.52028E+14	-1.16099E+14	8.943E+13	-3.80566E+14	-8.36453E+14	3.94355E+14	9.00387E+14	-4.32405E+14	-4.82567E+14	2.10886E+14	3.36707E+14	9.1769E+14
470	9141516	-8.74182E+13	-1.17775E+14	8.95857E+14	-3.81848E+14	-8.36065E+14	3.93938E+14	9.00167E+13	-4.33052E+14	-4.65364E+14	2.09503E+14	3.3684E+14	9.17958E+14
471	9141516	-8.69392E+13	-1.16039E+14	8.93402E+14	-3.83114E+13	-8.35667E+14	3.93552E+14	8.99946E+13	-4.33692E+14	-4.48229E+14	2.08137E+14	3.37004E+14	9.18209E+14
472	9141516	-8.68793E+14	-1.15919E+12	8.92444E+14	-3.84422E+14	-8.35279E+14	3.93101E+14	8.997E+14	-4.34372E+14	-4.3137E+14	2.06784E+14	3.3709E+14	9.18483E+14
473	9141516	-8.78373E+14	-1.17176E+14	8.94121E+14	-3.8569E+14	-8.3488E+14	3.92706E+14	8.99463E+14	-4.35026E+14	-4.14575E+14	2.0545E+14	3.37235E+14	9.18729E+14
474	9141516	-8.55022E+13	-1.16518E+14	8.95198E+14	-3.86969E+14	-8.34473E+14	3.92312E+14	8.99216E+14	-4.35693E+14	-3.97788E+14	2.04122E+14	3.3738E+13	9.18972E+14
475	9141516	-8.57417E+12	-1.15679E+14	8.98252E+14	-3.88273E+14	-8.34102E+14	3.91813E+14	8.98955E+14	-4.36378E+13	-3.81412E+14	2.02792E+14	3.37413E+14	9.19254E+14
476	9141516	-8.658E+14	-1.16997E+14	8.91845E+14	-3.89558E+14	-8.33701E+14	3.91391E+14	8.98689E+13	-4.37064E+14	-3.65078E+14	2.01499E+14	3.37517E+14	9.195E+14
477	9141516	-8.60411E+14	-1.16817E+14	8.9927E+14	-3.90861E+14	-8.33314E+14	3.90917E+14	8.98415E+14	-4.37761E+14	-3.48825E+14	2.00196E+14	3.37571E+14	9.19765E+14
478	9141516	-8.6101E+14	-1.16398E+13	8.94899E+14	-3.9217E+14	-8.32901E+14	3.90485E+14	8.98111E+12	-4.38503E+14	-3.33359E+14	1.98995E+14	3.37626E+14	9.20005E+14
479	9141516	-8.54423E+14	-1.17116E+14	8.94121E+14	-3.93457E+14	-8.32481E+14	3.90086E+14	8.97815E+14	-4.39225E+14	-3.17753E+14	1.97788E+14	3.37723E+14	9.2023E+14
480	9141516	-8.68195E+14	-1.16338E+14	8.95378E+14	-3.94754E+14	-8.32076E+14	3.8964E+14	8.97519E+14	-4.3994E+14	-3.01937E+14	1.96542E+14	3.3779E+13	9.20472E+14
481	9141516	-8.59213E+14	-1.16039E+14	8.93462E+14	-3.9607E+14	-8.31661E+14	3.8919E+14	8.972E+14	-4.40693E+14	-2.86589E+14	1.95348E+14	3.37831E+14	9.20711E+13
482	9141516	-8.69392E+13	-1.16398E+13	8.9442E+14	-3.97382E+14	-8.31252E+14	3.88726E+14	8.96873E+14	-4.41453E+14	-2.71596E+14	1.94181E+14	3.37845E+14	9.20953E+14
483	9141516	-8.73583E+14	-1.16099E+14	8.95737E+12	-3.98692E+14	-8.30833E+14	3.8828E+14	8.96546E+14	-4.42208E+14	-2.56383E+14	1.93002E+14	3.37889E+14	9.21185E+14
484	9141516	-8.61608E+14	-1.14422E+14	8.98432E+14	-4.00016E+14	-8.30411E+14	3.8782E+14	8.96197E+14	-4.42998E+14	-2.41796E+14	1.91882E+14	3.3789E+13	9.21418E+14
485	9141516	-8.47238E+14	-1.1562E+14	8.97893E+14	-4.01355E+14	-8.2998E+14	3.8736E+14	8.95835E+14	-4.43806E+14	-2.27233E+14	1.90773E+14	3.37891E+14	9.21648E+14
486	9141516	-8.56818E+14	-1.14542E+14	8.96097E+14	-4.02659E+14	-8.29585E+14	3.86851E+14	8.95509E+14	-4.44539E+14	-2.1191E+14	1.8955E+14	3.37895E+14	9.21899E+14
487	9141516	-8.58016E+14	-1.16158E+14	8.95079E+14	-4.03966E+14	-8.29163E+14	3.86393E+14	8.9517E+13	-4.45291E+13	-1.96704E+14	1.88367E+14	3.37941E+14	9.22124E+14
488	9141516	-8.55022E+13	-1.16158E+14	8.93342E+13	-4.05294E+14	-8.28718E+14	3.85957E+14	8.94791E+14	-4.46111E+14	-1.82582E+14	1.8731E+14	3.37951E+14	9.22336E+14
489	9141516	-8.72985E+14	-1.14781E+14	8.94779E+11	-4.06599E+14	-8.28289E+14	3.85507E+14	8.94436E+14	-4.46881E+14	-1.67816E+14	1.86175E+14	3.37988E+14	9.22552E+14
490	9141516	-8.57417E+12	-1.15679E+14	8.97174E+13	-4.07921E+14	-8.27855E+14	3.85041E+14	8.94072E+14	-4.47663E+14	-1.52957E+14	1.85031E+14	3.38015E+13	9.22773E+14
491	9141516	-8.64003E+14	-1.15021E+14	8.94121E+14	-4.09216E+14	-8.2743E+14	3.8458E+14	8.93709E+13	-4.48433E+14	-1.38518E+14	1.8392E+14	3.38034E+14	9.22988E+14
492	9141516	-8.69392E+13	-1.16697E+14	9.00707E+14	-4.10494E+14	-8.26959E+14	3.8423E+14	8.93338E+14	-4.49213E+13	-1.24159E+14	1.82869E+14	3.38151E+14	9.23154E+14
493	9141516	-8.39454E+14	-1.14422E+14	8.91366E+14	-4.11779E+14	-8.26502E+14	3.83841E+13	8.92965E+14	-4.49992E+14	-1.09814E+14	1.81801E+14	3.38234E+14	9.23334E+14
494	9141516	-8.71188E+14	-1.17476E+14	8.90169E+14	-4.13099E+14	-8.26045E+14	3.83404E+14	8.9257E+14	-4.50807E+14	-9.56528E+14	1.80743E+14	3.38263E+14	9.23531E+14
495	9141516	-8.658E+14	-1.17296E+14	8.90229E+14	-4.14383E+14	-8.25605E+13	3.82967E+14	8.9219E+14	-4.51586E+14	-8.15629E+14	1.79677E+14	3.383E+14	9.23726E+14
496	9141516	-8.56818E+14	-1.17057E+14	8.97294E+14	-4.15729E+14	-8.25158E+14	3.82471E+14	8.91771E+14	-4.52436E+13	-6.78785E+14	1.78645E+13	3.38255E+14	9.23942E+14
497	9141516	-8.59812E+13	-1.1556E+14	8.98671E+14	-4.17055E+14	-8.24718E+14	3.81976E+14	8.91356E+13	-4.53272E+14	-5.44015E+14	1.77626E+13	3.38207E+14	9.24156E+14
498	9141516	-8.72386E+14	-1.15979E+14	8.9424E+14	-4.18326E+14	-8.24277E+14	3.81537E+14	8.90974E+14	-4.54036E+14	-4.01999E+13	1.76545E+14	3.38258E+14	9.24345E+14
499	9141516	-8.64602E+13	-1.16757E+14	8.97833E+14	-4.19602E+14	-8.23836E+14	3.81088E+14	8.9059E+14	-4.54799E+14	-2.58846E+14	1.75451E+14	3.38307E+14	9.24535E+14
500	9141516	-8.71188E+14	-1.15679E+14	8.88073E+12	-4.20875E+14	-8.23368E+14	3.80696E+14	8.90178E+14	-4.5561E+14	-1.26379E+14	1.7449E+13	3.38355E+14	9.24699E+14
501	9141516	-8.50232E+13	-1.15799E+14	8.98611E+11	-4.22173E+14	-8.22897E+14	3.80276E+14	8.89763E+14	-4.56422E+13	1.19133E+14	1.73468E+14	3.38406E+14	9.24873E+14
502	9141516	-8.8496E+14	-1.14721E+14	8.95019E+14	-4.23483E+13	-8.2247E+14	3.79744E+14	8.89347E+14	-4.5723E+14	1.48795E+14	1.72407E+14	3.38355E+14	9.2509E+14
503	9141516	-8.77775E+14	-1.16937E+14	8.95737E+12	-4.24798E+14	-8.21991E+14	3.79312E+14	8.88892E+14	-4.58109E+14	2.73867E+14	1.71515E+14	3.3833E+13	9.25265E+13
504	9141516	-8.64602E+13	-1.14901E+14	8.92983E+14	-4.26045E+14	-8.21525E+14	3.78923E+14	8.88489E+14	-4.58879E+14	4.1074E+14	1.70505E+14	3.38419E+14	9.25419E+14
505	9141516	-8.74182E+13	-1.16997E+14	8.98072E+14	-4.27376E+14	-8.21056E+14	3.78439E+14	8.88034E+14	-4.59747E+13	5.40781E+14	1.69546E+14	3.38377E+14	9.25611E+14
506	9141516	-8.55022E+13	-1.16338E+14	8.84181E+14	-4.28683E+14	-8.20566E+14	3.78024E+14	8.87565E+14	-4.60634E+14	6.62299E+14	1.68696E+14	3.3836E+14	9.25772E+14
507	9141516	-8.64602E+13	-1.152E+14	8.99809E+14	-4.29958E+14	-8.20074E+14	3.77644E+14	8.87131E+14	-4.6145E+13	7.96129E+14	1.67735E+14	3.38443E+14	9.25917E+14
508	9141516	-8.71188E+14	-1.16518E+14	9.01485E+12	-4.31273E+14	-8.19587E+14	3.772E+14	8.86663E+14	-4.62323E+13	9.22475E+14	1.66828E+14	3.38428E+14	9.26086E+14
509	9141516	-8.72985E+14	-1.16278E+14	9.00467E+14	-4.32619E+14	-8.19139E+14	3.76632E+14	8.86215E+14	-4.63153E+14	1.06381E+14	1.65724E+14	3.38379E+14	9.26302E+13
510	9141516	-8.68195E+14	-1.16099E+14	8.92983E+14	-4.33953E+14	-8.18667E+14	3.76124E+13	8.85756E+13	-4.63995E+14	1.20142E+14	1.64684E+14	3.38367E+14	9.26492E+14
511	9141516	-8.8975E+14	-1.152E+14	8.94779E+11	-4.35313E+14	-8.18175E+14	3.75621E+14	8.8526E+14	-4.64906E+14	1.32868E+14	1.63758E+14	3.38307E+14	9.26678E+14
512	9141516	-8.89151E+14	-1.16637E+14	8.94121E+14	-4.36636E+13	-8.17678E+14	3.7517E+12	8.84779E+14	-4.65783E+14	1.45708E+14	1.62833E+14	3.38304E+14	9.26842E+14
513	9141516	-8.92744E+14	-1.16338E+14	8.93043E+14	-4.37945E+14	-8.17163E+14	3.74765E+14	8.84288E+14	-4.66675E+13	1.57964E+14	1.61985E+14	3.38318E+14	9.26985E+14
514	9141516	-8.97534E+14	-1.17356E+13	8.92025E+14	-4.39246E+14	-8.16695E+14	3.74262E+14	8.83811E+14	-4.67534E+14	1.70404E+14	1.61064E+14	3.38262E+14	9.27166E+14
515	9141516	-8.9454E+14	-1.16458E+14	8.95797E+14	-4.4054E+14	-8.16241E+14	3.73732E+14	8.83331E+14	-4.68395E+14	1.82471E+14	1.6016E+14	3.38167E+14	9.27357E+14
516	9141516	-8.71188E+14	-1.15021E+14	8.95618E+14	-4.41854E+12	-8.15719E+14	3.7332E+13	8.82809E+14	-4.69334E+14	1.93629E+14	1.59417E+14	3.38126E+14	9.27501E+14
517	9141516	-9.02922E+13	-1.16757E+14	8.96755E+14	-4.43167E+14	-8.15252E+14	3.72784E+14	8.82314E+14	-4.70211E+14	2.0581E+14	1.58508E+14	3.38034E+14	9.2769E+12
518	9141516	-8.96935E+14	-1.16997E+14	8.91546E+14	-4.44436E+14	-8.14781E+14	3.72302E+14	8.81837E+14	-4.71049E+14	2.18056E+14	1.57606E+14	3.38001E+14	9.27855E+14
519	9141516	-9.01725E+14	-1.1556E+14	8.97234E+14	-4.45709E+14	-8.1431E+14	3.7181E+14	8.81356E+14	-4.71892E+14	2.30289E+13	1.56702E+14	3.37961E+14	9.28023E+14
520	9141516	-8.78373E+14	-1.16578E+14	8.92145E+14	-4.47001E+14	-8.13789E+12	3.71398E+14	8.80833E+14	-4.72811E+14	2.41385E+14	1.55958E+14	3.3793E+14	9.2816E+14
521	9141516	-8.95737E+12	-1.17057E+14	8966953125	-4.48284E+14	-8.13274E+14	3.70982E+14	8.80324E+14	-4.73698E+14	2.53069E+14	1.55152E+14	3.37929E+14	9.28295E+14
522	9141516	-8.88552E+13	-1.1556E+14	8.93342E+13	-4.49548E+14	-8.12737E+14	3.70629E+14	8.79807E+14	-4.74596E+14	2.64249E+14	1.54423E+14	3.37962E+13	9.28405E+14
523	9141516	-8.92145E+14	-1.14003E+12	8.90588E+14	-4.50841E+14	-8.12218E+14	3.70195E+13	8.79262E+14	-4.75546E+14	2.74464E+14	1.53752E+14	3.37872E+14	9.28549E+14
524	9141516	-9.14897E+12	-1.18134E+14	9.03521E+14	-4.52187E+14	-8.11708E+14	3.69672E+14	8.78708E+14	-4.76504E+13	2.85605E+14	1.52968E+14	3.37749E+13	9.28723E+14
525	9141516	-8.73583E+14	-1.12207E+14	8.80409E+12	-4.53449E+14	-8.11156E+14	3.69337E+14	8.78166E+14	-4.7744E+14	2.95807E+14	1.52342E+14	3.37753E+14	9.28825E+14
526	9141516	-8.85558E+14	-1.18553E+14	8.96635E+14	-4.54746E+14	-8.10629E+14	3.68899E+14	8.77613E+14	-4.78391E+14	3.06156E+14	1.5166E+14	3.37673E+14	9.28965E+14
527	9141516	-8.60411E+14	-1.155E+14	8.96216E+13	-4.56044E+13	-8.101E+14	3.6846E+14	8.77065E+14	-4.79324E+14	3.16985E+14	1.50933E+14	3.37619E+14	9.29103E+13
528	9141516	-9.05317E+12	-1.18074E+14	8.92444E+14	-4.57353E+14	-8.09514E+14	3.68124E+14	8.76478E+14	-4.80333E+14	3.26614E+14	1.50382E+14	3.3759E+14	9.29203E+13
529	9141516	-8.59213E+14	-1.15141E+14	8.8951E+13	-4.5866E+14	-8.08965E+14	3.67705E+14	8.75904E+14	-4.81309E+14	3.36707E+14	1.49741E+14	3.37518E+14	9.29333E+14
530	9141516	-8.83163E+14	-1.17835E+12	8.96935E+14	-4.59979E+14	-8.08429E+13	3.67236E+14	8.75324E+14	-4.82293E+14	3.46654E+14	1.49091E+14	3.37396E+14	9.29481E+13
531	9141516	-8.90349E+14	-1.16458E+14	8.91845E+14	-4.61266E+14	-8.07857E+14	3.6688E+14	8.74739E+14	-4.83284E+14	3.56061E+13	1.48543E+14	3.37349E+14	9.29586E+14
532	9141516	-8.84361E+14	-1.16039E+14	8.92384E+13	-4.62558E+14	-8.07309E+13	3.66458E+14	8.74162E+14	-4.84255E+14	3.65845E+14	1.47924E+14	3.37266E+14	9.29715E+14
533	9141516	-8.92145E+14	-1.15679E+14	8.96097E+14	-4.63878E+14	-8.0675E+14	3.6602E+14	8.7356E+14	-4.85268E+14	3.75249E+14	1.47345E+14	3.37147E+14	9.2985E+14
534	9141516	-8.92744E+14	-1.16158E+14	8.94899E+14	-4.65164E+14	-8.06197E+13	3.65607E+14	8.72983E+14	-4.86226E+14	3.85293E+12	1.46706E+14	3.37092E+14	9.29971E+14
535	9141516	-8.80768E+14	-1.1532E+14	8.92025E+14	-4.66467E+14	-8.0566E+14	3.65131E+14	8.72395E+14	-4.87204E+14	3.95003E+14	1.4607E+14	3.36964E+14	9.30118E+14
536	9141516	-8.87953E+14	-1.14302E+14	8.95977E+14	-4.67802E+14	-8.05084E+14	3.64694E+14	8.71764E+14	-4.8826E+14	4.03688E+14	1.45565E+14	3.36812E+14	9.30252E+14
537	9141516	-8.93342E+13	-1.15739E+14	8.94061E+14	-4.69091E+14	-8.04526E+14	3.64269E+14	8.71165E+14	-4.89251E+14	4.1289E+14	1.45001E+14	3.36706E+14	9.30378E+14
538	9141516	-8.64602E+13	-1.13644E+14	8.95737E+12	-4.70383E+14	-8.0394E+14	3.63897E+14	8.70556E+14	-4.90255E+14	4.22084E+14	1.44469E+14	3.36647E+14	9.30482E+14
539	9141516	-8.83762E+13	-1.17416E+14	8.95917E+14	-4.71659E+14	-8.03408E+14	3.6342E+14	8.69973E+14	-4.91204E+14	4.31807E+14	1.43822E+14	3.36532E+14	9.30624E+14
540	9141516	-8.72985E+14	-1.16518E+14	8.9436E+14	-4.72937E+14	-8.02835E+14	3.63024E+14	8.69376E+13	-4.92176E+14	4.41378E+14	1.43236E+14	3.36478E+14	9.30734E+14
541	9141516	-8.90349E+14	-1.16518E+14	8.96216E+13	-4.74213E+14	-8.02291E+13	3.62561E+14	8.68778E+14	-4.93148E+14	4.50607E+14	1.42644E+14	3.36353E+14	9.3087E+14
542	9141516	-8.84361E+14	-1.16578E+14	8.93402E+14	-4.755E+14	-8.01738E+14	3.62098E+14	8.68172E+14	-4.94128E+14	4.59939E+14	1.42048E+14	3.36233E+14	9.31005E+14
543	9141516	-9.05916E+14	-1.16877E+11	8.95618E+14	-4.76829E+14	-8.0118E+14	3.61586E+14	8.67525E+14	-4.95184E+14	4.68201E+14	1.4154E+14	3.3601E+14	9.31162E+14
544	9141516	-8.82565E+14	-1.16817E+14	8.95378E+14	-4.78126E+14	-8.00619E+14	3.61117E+12	8.66899E+14	-4.96197E+14	4.76937E+14	1.41E+14	3.35855E+14	9.313E+14
545	9141516	-8.88552E+13	-1.19511E+14	8.91965E+14	-4.79395E+14	-8.00063E+14	3.60666E+14	8.66292E+14	-4.97168E+13	4.86039E+14	1.40426E+14	3.35743E+14	9.31428E+14
546	9141516	-8.78373E+14	-1.14422E+14	8.87834E+14	-4.80691E+14	-7.99461E+14	3.60274E+14	8.65647E+14	-4.98208E+14	4.94359E+14	1.39969E+14	3.35633E+14	9.31536E+14
547	9141516	-8.85558E+14	-1.15799E+14	8.94839E+14	-4.81973E+14	-7.98865E+13	3.59883E+14	8.65008E+14	-4.99235E+14	5.02646E+14	1.39511E+14	3.35528E+14	9.31643E+14
548	9141516	-8.76577E+12	-1.16578E+14	8.90887E+14	-4.83278E+14	-7.98295E+14	3.59399E+14	8.64359E+14	-5.00273E+14	5.10856E+14	1.39016E+14	3.35339E+14	9.31785E+14
549	9141516	-8.87953E+14	-1.152E+14	8.92803E+14	-4.84588E+14	-7.97665E+14	3.59033E+14	8.63684E+14	-5.01361E+14	5.18406E+14	1.38654E+14	3.35212E+14	9.31884E+13
550	9141516	-8.96336E+14	-1.15919E+12	8.95019E+14	-4.85888E+14	-7.9707E+12	3.58598E+14	8.63023E+14	-5.02415E+14	5.26293E+14	1.38216E+14	3.3505E+14	9.32007E+14
551	9141516	-8.96935E+14	-1.1526E+14	8.94839E+14	-4.87182E+14	-7.9646E+14	3.58197E+14	8.6236E+13	-5.0347E+14	5.34143E+14	1.37799E+14	3.34917E+14	9.32117E+14
552	9141516	-8.9454E+14	-1.15739E+14	8.95438E+14	-4.88466E+14	-7.95851E+14	3.578E+13	8.61701E+14	-5.04512E+13	5.42065E+14	1.37374E+14	3.34795E+14	9.32223E+13
553	9141516	-9.02922E+13	-1.16039E+14	8.92624E+14	-4.89764E+14	-7.9526E+14	3.57341E+14	8.61033E+14	-5.0557E+14	5.49711E+14	1.36945E+14	3.34605E+14	9.32355E+14
554	9141516	-8.91546E+14	-1.17356E+13	8.96097E+14	-4.91079E+14	-7.94642E+14	3.5691E+14	8.60333E+14	-5.06688E+14	5.56326E+13	1.36634E+14	3.34382E+14	9.32481E+14
555	9141516	-8.8017E+14	-1.155E+14	8.94779E+11	-4.92349E+14	-7.94035E+14	3.56512E+14	8.59674E+14	-5.07719E+14	5.64153E+14	1.36212E+14	3.3426E+14	9.32586E+14
556	9141516	-8.8017E+14	-1.15141E+14	8.93462E+14	-4.93646E+14	-7.93408E+14	3.56116E+14	8.58984E+14	-5.08807E+14	5.71228E+14	1.35872E+14	3.34096E+14	9.32694E+14
557	9141516	-8.72386E+14	-1.16697E+14	9.00408E+14	-4.94936E+14	-7.9282E+14	3.55633E+14	8.58309E+14	-5.09859E+14	5.78749E+14	1.35438E+14	3.33888E+14	9.32832E+14
558	9141516	-8.82565E+14	-1.1538E+14	8.95857E+14	-4.96194E+14	-7.92196E+14	3.5527E+14	8.57644E+14	-5.10889E+14	5.86413E+14	1.35048E+14	3.33793E+14	9.32922E+14
559	9141516	-8.64602E+13	-1.16458E+14	8.94719E+14	-4.97486E+14	-7.91562E+12	3.54876E+14	8.56946E+13	-5.11979E+14	5.93323E+14	1.34724E+14	3.33627E+14	9.33029E+14
560	9141516	-8.87953E+14	-1.16697E+14	8.96156E+14	-4.98774E+14	-7.90916E+14	3.54508E+14	8.56244E+14	-5.13074E+14	6.00091E+14	1.34427E+14	3.33477E+13	9.33125E+14
561	9141516	-8.82565E+14	-1.17057E+14	8.94779E+11	-5.00054E+14	-7.90283E+14	3.54117E+14	8.55543E+13	-5.14164E+14	6.06673E+14	1.3413E+14	3.333E+14	9.33231E+14
562	9141516	-8.86157E+12	-1.15979E+14	8.95498E+14	-5.01356E+14	-7.89632E+14	3.53729E+14	8.54824E+14	-5.15284E+14	6.13071E+14	1.33861E+14	3.33112E+14	9.33337E+14
563	9141516	-8.8017E+14	-1.15679E+14	8.95378E+14	-5.02638E+14	-7.88991E+14	3.53339E+14	8.54116E+14	-5.16378E+14	6.19631E+14	1.33568E+14	3.32937E+13	9.33441E+14
564	9141516	-8.78373E+14	-1.16518E+14	8.96516E+14	-5.03937E+14	-7.88347E+14	3.52925E+14	8.53388E+14	-5.1751E+14	6.25529E+14	1.33328E+14	3.32704E+13	9.33558E+14
565	9141516	-8.87953E+14	-1.16218E+14	8.90109E+14	-5.05236E+14	-7.87691E+14	3.52534E+14	8.52656E+14	-5.18642E+14	6.31489E+14	1.33097E+13	3.32495E+14	9.33666E+11
566	9141516	-8.98731E+14	-1.17775E+14	8.90049E+14	-5.06509E+14	-7.8706E+14	3.52115E+14	8.51948E+12	-5.19724E+13	6.38028E+14	1.32786E+13	3.32301E+14	9.33779E+13
567	9141516	-8.85558E+14	-1.16398E+13	8.95258E+13	-5.07763E+14	-7.86439E+14	3.51697E+14	8.51253E+14	-5.2078E+13	6.44681E+14	1.32457E+14	3.32118E+14	9.33891E+14
568	9141516	-8.90947E+11	-1.17296E+14	8.95378E+14	-5.09034E+14	-7.85772E+14	3.5135E+14	8.50529E+14	-5.21885E+14	6.50792E+14	1.32227E+14	3.31961E+14	9.3398E+13
569	9141516	-8.78972E+13	-1.155E+14	8.96097E+14	-5.10304E+13	-7.85111E+14	3.50984E+14	8.49807E+14	-5.22984E+14	6.56972E+14	1.3198E+14	3.31794E+14	9.34074E+14
570	9141516	-8.93941E+14	-1.15081E+14	8.94839E+14	-5.11574E+14	-7.84456E+14	3.50601E+14	8.49086E+14	-5.24073E+14	6.63377E+14	1.31702E+14	3.31627E+14	9.34172E+13
571	9141516	-8.93342E+13	-1.16278E+14	8.96576E+14	-5.12804E+14	-7.83803E+14	3.50263E+14	8.48387E+14	-5.2512E+14	6.69938E+14	1.3142E+14	3.31513E+14	9.34252E+14
572	9141516	-8.98132E+13	-1.16158E+14	8.97114E+14	-5.14061E+14	-7.83188E+14	3.49797E+14	8.47677E+13	-5.26184E+14	6.76312E+14	1.31089E+14	3.31281E+14	9.34381E+14
573	9141516	-9.07712E+13	-1.16697E+14	8.94121E+14	-5.15333E+14	-7.82515E+14	3.49431E+14	8.46932E+14	-5.27314E+14	6.81685E+14	1.30917E+14	3.31074E+14	9.34479E+14
574	9141516	-8.84361E+14	-1.16218E+14	8.95558E+14	-5.16597E+14	-7.81869E+14	3.4901E+14	8.46202E+14	-5.28406E+14	6.87697E+14	1.3065E+14	3.30859E+14	9.34592E+13
575	9141516	-90052734375	-1.17176E+14	8.95258E+13	-5.17834E+14	-7.81221E+14	3.48627E+14	8.4549E+14	-5.29462E+14	6.94044E+14	1.30365E+14	3.307E+14	9.34688E+13
576	9141516	-90052734375	-1.14302E+14	8.92205E+14	-5.19107E+14	-7.80525E+14	3.48293E+14	8.44732E+14	-5.30599E+14	6.99413E+14	1.30213E+14	3.30522E+13	9.34773E+14
577	9141516	-8.89151E+14	-1.15141E+14	8.96156E+14	-5.20389E+14	-7.79845E+14	3.47904E+14	8.43964E+14	-5.31755E+13	7.04318E+13	1.30074E+14	3.3027E+14	9.34881E+14
578	9141516	-8.88552E+13	-1.17835E+12	8.97055E+14	-5.21668E+13	-7.7914E+14	3.47567E+14	8.43192E+14	-5.32912E+14	7.09312E+14	1.29957E+14	3.30068E+14	9.34968E+14
579	9141516	-8.78373E+14	-1.17655E+14	8.90768E+14	-5.22933E+14	-7.7847E+14	3.47169E+14	8.42436E+14	-5.34038E+13	7.14487E+14	1.29781E+13	3.29831E+14	9.35077E+13
580	9141516	-8.82565E+14	-1.15739E+14	8.93582E+14	-5.24204E+13	-7.77756E+14	3.46851E+14	8.41661E+14	-5.35193E+14	7.1938E+14	1.29682E+14	3.29641E+14	9.35157E+14
581	9141516	-8.72386E+14	-1.16637E+14	8.96276E+14	-5.25469E+14	-7.77081E+14	3.4645E+14	8.40896E+14	-5.36328E+14	7.24335E+14	1.29524E+14	3.2939E+14	9.35268E+14
582	9141516	-8.66398E+14	-1.155E+14	9.04599E+14	-5.26734E+14	-7.76394E+14	3.46069E+14	8.40121E+14	-5.37478E+14	7.2892E+14	1.29412E+14	3.29135E+13	9.35373E+14
583	9141516	-9.05317E+12	-1.17296E+14	8.95737E+12	-5.27992E+14	-7.75695E+14	3.45718E+14	8.3935E+14	-5.38616E+11	7.33783E+14	1.2929E+14	3.28922E+11	9.35465E+13
584	9141516	-8.86157E+12	-1.16578E+14	8.9454E+14	-5.2921E+14	-7.75002E+14	3.45411E+14	8.38611E+14	-5.39689E+13	7.39442E+14	1.29108E+14	3.28798E+14	9.35534E+14
585	9141516	-8.8017E+14	-1.16218E+14	8.943E+13	-5.30472E+14	-7.74287E+14	3.45078E+13	8.37819E+14	-5.40862E+14	7.43503E+13	1.29071E+12	3.28553E+14	9.35625E+14
586	9141516	-8.79571E+14	-1.16158E+14	8.9448E+14	-5.31695E+14	-7.73597E+14	3.44743E+14	8.3707E+14	-5.41946E+14	7.48918E+14	1.28896E+14	3.28394E+14	9.35705E+14
587	9141516	-8.84361E+14	-1.1526E+14	8.95917E+14	-5.32949E+14	-7.72898E+14	3.44376E+14	8.36291E+14	-5.43083E+14	7.5361E+14	1.28778E+14	3.28162E+14	9.35802E+14
588	9141516	-8.88552E+13	-1.16697E+14	8.9454E+14	-5.34193E+14	-7.72204E+14	3.44004E+14	8.35514E+14	-5.44214E+14	7.5816E+14	1.28666E+14	3.2792E+14	9.35903E+14
589	9141516	-8.81966E+14	-1.1526E+14	8.92803E+14	-5.35458E+14	-7.71482E+14	3.43657E+14	8.34715E+14	-5.45377E+13	7.62551E+14	1.28593E+14	3.27687E+14	9.35994E+14
590	9141516	-8.9454E+14	-1.15919E+12	8.96396E+14	-5.36678E+14	-7.70752E+14	3.43392E+14	8.3394E+14	-5.46496E+14	7.67182E+14	1.28532E+14	3.27542E+14	9.36053E+14
591	9141516	-8.97534E+14	-1.1526E+14	8.98252E+14	-5.37931E+14	-7.70008E+13	3.431E+14	8.33136E+14	-5.47664E+13	7.71291E+14	1.28514E+14	3.27339E+14	9.36127E+14
592	9141516	-8.9454E+14	-1.16099E+14	8.96276E+14	-5.39165E+13	-7.69286E+14	3.42782E+14	8.32342E+13	-5.48815E+14	7.75249E+14	1.28485E+14	3.27111E+14	9.36211E+14
593	9141516	-8.91546E+14	-1.15081E+14	8.92324E+14	-5.40408E+14	-7.68548E+14	3.4248E+14	8.3154E+14	-5.49969E+14	7.79397E+14	1.28453E+14	3.26905E+14	9.36287E+14
594	9141516	-8.87355E+14	-1.16458E+14	8.92444E+14	-5.41674E+14	-7.67773E+14	3.42219E+14	8.30705E+13	-5.51182E+14	7.82787E+14	1.28525E+14	3.26685E+14	9.36354E+14
595	9141516	-8.8496E+14	-1.16338E+14	8.91546E+14	-5.42916E+14	-7.67028E+13	3.41922E+13	8.29898E+14	-5.52339E+14	7.86883E+14	1.28501E+14	3.26482E+13	9.36428E+14
596	9141516	-8.87355E+14	-1.16637E+14	8.93522E+14	-5.4414E+14	-7.66338E+14	3.41522E+14	8.29116E+14	-5.53448E+13	7.91369E+14	1.28369E+14	3.26223E+14	9.36536E+14
597	9141516	-8.88552E+13	-1.15919E+12	8.92145E+14	-5.45397E+14	-7.65581E+14	3.41216E+14	8.28284E+14	-5.54644E+14	7.94766E+14	1.28408E+14	3.2597E+14	9.36619E+14
598	9141516	-8.87355E+14	-1.14841E+14	8.91366E+14	-5.46645E+14	-7.6483E+14	3.40901E+14	8.27457E+14	-5.55826E+14	7.98252E+14	1.28429E+13	3.25717E+14	9.36704E+14
599	9141516	-9.137E+14	-1.15739E+14	8.98192E+14	-5.47868E+14	-7.64078E+14	3.40626E+14	8.26644E+14	-5.56984E+14	8.01842E+14	1.28456E+14	3.25507E+14	9.36773E+13
600	9141516	-8.98731E+14	-1.1544E+13	8.93282E+14	-5.49118E+14	-7.63326E+14	3.40298E+14	8.25806E+14	-5.58179E+14	8.04973E+14	1.28501E+14	3.25223E+14	9.36866E+14
601	9141516	-8.93941E+14	-1.1538E+14	8.95977E+14	-5.50336E+14	-7.6256E+14	3.40048E+14	8.24993E+14	-5.59325E+14	8.08838E+14	1.28519E+14	3.25051E+14	9.36923E+14
602	9141516	-8.98731E+14	-1.16458E+14	8.93642E+14	-5.51566E+14	-7.61807E+14	3.39744E+14	8.24171E+14	-5.60481E+13	8.12555E+14	1.28519E+14	3.24825E+14	9.37001E+13
603	9141516	-8.90349E+14	-1.15739E+14	8.95378E+14	-5.52819E+14	-7.61058E+14	3.39384E+14	8.23324E+14	-5.61684E+14	8.15461E+14	1.28565E+14	3.24503E+14	9.37107E+14
604	9141516	-8.77775E+14	-1.14662E+14	8.93761E+14	-5.54029E+14	-7.60293E+14	3.39125E+14	8.22504E+14	-5.62831E+14	8.19034E+14	1.286E+14	3.24309E+14	9.37169E+14
605	9141516	-8.8496E+14	-1.14362E+14	8.9466E+14	-5.5524E+14	-7.59536E+14	3.38841E+14	8.21683E+14	-5.63978E+14	8.22491E+14	1.28628E+14	3.24088E+14	9.37242E+14
606	9141516	-8.98731E+14	-1.17835E+12	8.93941E+14	-5.56454E+14	-7.58774E+14	3.38557E+13	8.20851E+14	-5.65146E+14	8.25483E+14	1.28698E+14	3.23839E+14	9.37318E+14
607	9141516	-8.90947E+11	-1.15141E+14	8.93402E+14	-5.57667E+14	-7.58016E+14	3.38259E+14	8.20022E+14	-5.66298E+14	8.28846E+14	1.28728E+14	3.23602E+14	9.37396E+14
608	9141516	-8.87953E+14	-1.16218E+14	8.93103E+14	-5.58889E+14	-7.57251E+14	3.37957E+14	8.1918E+14	-5.67474E+14	8.31774E+14	1.28795E+14	3.23334E+13	9.37479E+14
609	9141516	-8.83762E+13	-1.17057E+14	8.94839E+14	-5.60122E+14	-7.56465E+14	3.37675E+14	8.1832E+14	-5.68674E+14	8.34451E+14	1.28904E+14	3.23066E+14	9.37557E+14
610	9141516	-8.92744E+14	-1.16278E+14	8.96456E+14	-5.61356E+14	-7.55648E+14	3.37454E+14	8.17442E+14	-5.69904E+14	8.36528E+14	1.29104E+14	3.22808E+14	9.37618E+13
611	9141516	-9.04719E+14	-1.17595E+14	8.94061E+14	-5.62587E+14	-7.54831E+14	3.37233E+14	8.16565E+14	-5.71129E+14	8.38675E+14	1.29298E+13	3.22556E+14	9.37678E+13
612	9141516	-8.96935E+14	-1.17176E+14	8.91786E+14	-5.63788E+14	-7.54059E+14	3.36954E+14	8.15724E+14	-5.72287E+14	8.41582E+14	1.29374E+14	3.22309E+14	9.37752E+14
613	9141516	-8.77176E+14	-1.16158E+14	8.92803E+14	-5.65017E+14	-7.53242E+14	3.36724E+14	8.14839E+14	-5.7352E+14	8.4336E+14	1.29592E+14	3.22027E+14	9.37819E+14
614	9141516	-8.95737E+12	-1.16997E+14	8.9466E+14	-5.66223E+14	-7.52476E+14	3.36409E+14	8.13987E+14	-5.74691E+14	8.45896E+14	1.2968E+14	3.21729E+14	9.37909E+14
615	9141516	-8.87953E+14	-1.1556E+14	8.92085E+14	-5.67442E+14	-7.51671E+14	3.36155E+14	8.13107E+13	-5.75908E+14	8.47763E+14	1.29871E+14	3.21436E+13	9.37983E+14
616	9141516	-9.05916E+14	-1.17595E+14	8.93163E+14	-5.68621E+14	-7.50887E+14	3.35914E+14	8.12271E+14	-5.77041E+14	8.50871E+14	1.29945E+14	3.21235E+14	9.38042E+14
617	9141516	-8.9933E+14	-1.14901E+14	8.9448E+14	-5.69818E+14	-7.50154E+14	3.35524E+14	8.11427E+14	-5.78189E+14	8.5345E+14	1.29975E+14	3.20885E+14	9.38158E+14
618	9141516	-8.96336E+14	-1.16637E+14	8.90828E+14	-5.71014E+14	-7.49343E+14	3.35303E+14	8.1056E+14	-5.79368E+13	8.55837E+14	1.30132E+14	3.20653E+13	9.38215E+14
619	9141516	-8.92145E+14	-1.15859E+14	8.96635E+14	-5.72229E+14	-7.4851E+13	3.35093E+14	8.09665E+14	-5.80594E+14	8.57484E+13	1.30369E+14	3.20381E+14	9.38275E+14
620	9141516	-8.77775E+14	-1.16518E+14	8.95019E+14	-5.73433E+14	-7.47717E+14	3.34805E+14	8.0879E+14	-5.81783E+13	8.59531E+14	1.30515E+14	3.20075E+13	9.38359E+14
621	9141516	-8.88552E+13	-1.15021E+14	8.96097E+14	-5.74646E+14	-7.46895E+14	3.3456E+14	8.07892E+14	-5.83005E+14	8.611E+14	1.30735E+14	3.19771E+14	9.38432E+14
622	9141516	-8.93342E+13	-1.16278E+14	8.92744E+14	-5.75825E+14	-7.46097E+14	3.34312E+14	8.0703E+14	-5.84164E+13	8.63418E+13	1.30874E+14	3.19518E+14	9.38499E+14
623	9141516	-9.01126E+14	-1.17655E+14	8.9454E+14	-5.77013E+14	-7.45302E+14	3.34036E+14	8.06155E+14	-5.85342E+14	8.6534E+13	1.31031E+14	3.19216E+14	9.3858E+14
624	9141516	-8.92145E+14	-1.16278E+14	8.92145E+14	-5.78217E+14	-7.44459E+13	3.33835E+14	8.05253E+13	-5.8656E+14	8.66931E+14	1.31275E+14	3.18949E+14	9.38636E+14
625	9141516	-8.90349E+14	-1.155E+14	8.94899E+14	-5.79423E+14	-7.43608E+14	3.33641E+14	8.04343E+14	-5.87786E+14	8.68366E+14	1.31537E+14	3.18677E+14	9.38692E+14
626	9141516	-8.87953E+14	-1.1562E+14	8.90648E+14	-5.80599E+14	-7.42832E+14	3.33324E+14	8.03476E+14	-5.88939E+14	8.70463E+14	1.31647E+13	3.18357E+14	9.38786E+14
627	9141516	-8.98731E+14	-1.15081E+14	8.9466E+14	-5.81787E+14	-7.42008E+14	3.33088E+14	8.02582E+14	-5.90132E+14	8.72138E+13	1.31853E+14	3.18071E+14	9.38853E+14
628	9141516	-8.96336E+14	-1.17955E+14	8.95857E+14	-5.82972E+14	-7.41176E+14	3.32869E+14	8.01677E+14	-5.91347E+14	8.73101E+13	1.32129E+14	3.17753E+14	9.38922E+14
629	9141516	-8.86157E+12	-1.16099E+14	8.96097E+14	-5.84143E+14	-7.40368E+14	3.32614E+13	8.00794E+13	-5.92518E+14	8.74787E+13	1.32313E+14	3.17455E+14	9.38997E+14
630	9141516	-8.93941E+14	-1.16039E+14	8.95079E+14	-5.85319E+14	-7.39547E+14	3.32373E+14	7.999E+13	-5.93701E+14	8.76321E+14	1.32522E+14	3.17158E+14	9.39068E+14
631	9141516	-8.84361E+14	-1.15081E+14	8.96276E+14	-5.86509E+14	-7.38728E+14	3.32095E+14	7.98992E+14	-5.94904E+14	8.77559E+14	1.32737E+14	3.16811E+14	9.39155E+14
632	9141516	-8.97534E+14	-1.16697E+14	8.9454E+14	-5.87697E+14	-7.37882E+14	3.31879E+14	7.9807E+14	-5.96129E+13	8.78333E+14	1.33032E+14	3.16482E+14	9.39224E+14
633	9141516	-8.80768E+14	-1.1562E+14	8.94001E+14	-5.88863E+14	-7.37041E+13	3.3168E+13	7.97173E+14	-5.97304E+14	8.8001E+14	1.33253E+14	3.16226E+13	9.39279E+14
634	9141516	-8.98132E+13	-1.15679E+14	8.96516E+14	-5.90059E+14	-7.36177E+14	3.31473E+14	7.96239E+14	-5.98535E+13	8.80929E+14	1.33546E+14	3.15911E+14	9.39343E+14
635	9141516	-8.74182E+13	-1.17176E+14	8.94959E+14	-5.91248E+14	-7.35387E+14	3.31107E+14	7.95327E+13	-5.9973E+14	8.81942E+13	1.33718E+14	3.15483E+14	9.39463E+14
636	9141516	-9.16095E+14	-1.14482E+13	8.96216E+13	-5.92415E+14	-7.34556E+14	3.30867E+14	7.94413E+14	-6.00929E+14	8.82739E+13	1.33985E+14	3.1514E+14	9.3954E+13
637	9141516	-8.78972E+13	-1.18015E+14	8.92624E+14	-5.93573E+14	-7.33712E+14	3.30664E+14	7.93507E+14	-6.02107E+14	8.83995E+14	1.34235E+14	3.14855E+14	9.39599E+14
638	9141516	-8.87355E+14	-1.15859E+14	8.93462E+14	-5.94737E+14	-7.32853E+14	3.30476E+14	7.92582E+13	-6.03314E+14	8.84718E+14	1.34544E+14	3.14547E+14	9.39659E+14
639	9141516	-9.03521E+14	-1.1532E+14	8.93702E+14	-5.95874E+14	-7.32007E+14	3.30304E+14	7.91684E+13	-6.04471E+14	8.86069E+14	1.34798E+14	3.14295E+13	9.39706E+14
640	9141516	-9.02922E+13	-1.14362E+14	8.94001E+14	-5.97019E+14	-7.3116E+14	3.30112E+14	7.90778E+14	-6.05639E+14	8.87286E+14	1.35054E+14	3.14018E+14	9.39762E+14
641	9141516	-8.72985E+14	-1.16458E+14	8.93163E+14	-5.98182E+14	-7.30317E+14	3.29873E+14	7.89856E+14	-6.06825E+14	8.88317E+14	1.353E+14	3.1369E+14	9.39837E+14
642	9141516	-8.95737E+12	-1.15799E+14	8.93522E+14	-5.99333E+14	-7.29442E+14	3.29721E+14	7.88926E+14	-6.08023E+14	8.89E+14	1.3563E+14	3.13406E+14	9.39884E+13
643	9141516	-8.72985E+14	-1.16278E+14	8.95378E+14	-6.00472E+14	-7.28587E+14	3.29537E+14	7.88011E+14	-6.09196E+13	8.89928E+14	1.35914E+14	3.13117E+14	9.39939E+13
644	9141516	-8.9933E+14	-1.15141E+14	8.92265E+14	-6.01621E+14	-7.2771E+13	3.29379E+13	7.87075E+14	-6.10398E+14	8.90395E+14	1.36257E+14	3.12814E+14	9.3999E+14
645	9141516	-8.9933E+14	-1.16458E+14	8.93043E+14	-6.02744E+14	-7.26844E+14	3.29237E+13	7.86159E+14	-6.11566E+14	8.91143E+14	1.36578E+14	3.12546E+13	9.40033E+14
646	9141516	-8.88552E+13	-1.15739E+14	8.9448E+14	-6.03867E+14	-7.25985E+14	3.29075E+14	7.85247E+14	-6.12723E+14	8.92106E+14	1.36866E+14	3.12276E+14	9.4008E+14
647	9141516	-8.90947E+11	-1.14781E+14	8.95079E+14	-6.05002E+14	-7.25106E+14	3.28928E+14	7.84314E+13	-6.13908E+13	8.92701E+14	1.37201E+14	3.11992E+14	9.40126E+14
648	9141516	-8.96336E+14	-1.17116E+14	8.93043E+14	-6.06115E+14	-7.24261E+14	3.28741E+14	7.83407E+14	-6.1505E+14	8.93646E+14	1.37469E+14	3.11703E+14	9.40183E+14
649	9141516	-8.65201E+14	-1.16877E+11	8.97174E+13	-6.07245E+14	-7.23398E+14	3.28555E+14	7.82473E+14	-6.16235E+14	8.93881E+14	1.37804E+14	3.11366E+14	9.40245E+14
650	9141516	-8.90349E+14	-1.17476E+14	8.93462E+14	-6.08383E+14	-7.22496E+14	3.28435E+14	7.81517E+14	-6.17447E+14	8.93901E+14	1.38208E+14	3.11061E+14	9.40287E+13
651	9141516	-8.78972E+13	-1.16278E+14	8.92564E+14	-6.09513E+14	-7.21618E+12	3.2827E+14	7.80579E+14	-6.18623E+14	8.94494E+14	1.38527E+14	3.10761E+14	9.40339E+14
652	9141516	-8.87355E+14	-1.13883E+14	8.93163E+14	-6.10611E+13	-7.20757E+13	3.28122E+14	7.79665E+14	-6.19767E+14	8.95129E+14	1.38842E+14	3.10482E+14	9.40385E+13
653	9141516	-8.90947E+11	-1.16338E+14	8.93821E+12	-6.11729E+14	-7.19915E+14	3.27887E+13	7.78742E+14	-6.20916E+14	8.95787E+14	1.39101E+14	3.10138E+14	9.4046E+14
654	9141516	-8.87953E+14	-1.14841E+14	8.943E+13	-6.12876E+14	-7.19005E+14	3.27741E+14	7.77761E+14	-6.22152E+14	8.9526E+14	1.39535E+14	3.09773E+14	9.40516E+14
655	9141516	-90052734375	-1.16817E+14	8.96156E+14	-6.13974E+14	-7.18165E+14	3.27529E+14	7.76849E+14	-6.23279E+14	8.96045E+14	1.39791E+14	3.09455E+14	9.40583E+12
656	9141516	-8.80768E+14	-1.15919E+12	8.95378E+14	-6.15061E+14	-7.17321E+14	3.27339E+14	7.7594E+14	-6.244E+14	8.96786E+14	1.40062E+14	3.09154E+13	9.40642E+14
657	9141516	-8.85558E+14	-1.17236E+14	8.94121E+14	-6.16173E+14	-7.16414E+14	3.27235E+14	7.74982E+14	-6.2559E+14	8.96659E+14	1.40477E+14	3.08851E+14	9.40679E+13
658	9141516	-8.85558E+14	-1.15739E+14	8.94899E+14	-6.17286E+14	-7.15529E+14	3.27072E+14	7.74031E+14	-6.26764E+14	8.96759E+14	1.40832E+14	3.0852E+14	9.40735E+14
659	9141516	-8.96935E+14	-1.15859E+14	8.94121E+14	-6.18389E+14	-7.14634E+14	3.26946E+14	7.73077E+14	-6.27944E+14	8.96574E+14	1.41231E+14	3.08197E+13	9.40781E+14
660	9141516	-8.80768E+14	-1.14063E+14	8.96156E+14	-6.19488E+14	-7.13743E+13	3.2681E+13	7.72127E+14	-6.29111E+14	8.96544E+14	1.41609E+13	3.07879E+14	9.40828E+14
661	9141516	-8.68195E+14	-1.16158E+14	8.96635E+14	-6.20582E+14	-7.12849E+14	3.26687E+14	7.71177E+14	-6.30277E+14	8.96474E+14	1.41998E+14	3.07567E+14	9.40871E+14
662	9141516	-8.79571E+14	-1149609375	8.91007E+14	-6.21706E+14	-7.11919E+13	3.26577E+13	7.70187E+14	-6.31496E+14	8.95805E+14	1.42458E+14	3.07218E+14	9.40916E+14
663	9141516	-9.01126E+14	-1.15859E+14	8.93941E+14	-6.22824E+14	-7.10987E+14	3.26477E+14	7.692E+14	-6.32705E+14	8.95356E+14	1.42905E+14	3.06891E+14	9.40955E+13
664	9141516	-8.98132E+13	-1.1562E+14	8.9424E+14	-6.23935E+14	-7.10058E+14	3.26379E+14	7.68211E+14	-6.33916E+14	8.94565E+14	1.43378E+14	3.06543E+14	9.40996E+14
665	9141516	-8.8496E+14	-1.17236E+14	8.943E+13	-6.25069E+14	-7.09109E+14	3.26271E+14	7.6719E+14	-6.3517E+14	8.93176E+14	1.43902E+14	3.06142E+14	9.41047E+14
666	9141516	-8.77176E+14	-1.16877E+11	8.92384E+13	-6.26175E+14	-7.08155E+14	3.26223E+14	7.6619E+14	-6.3639E+14	8.92221E+14	1.44422E+14	3.05817E+14	9.41073E+13
667	9141516	-8.84361E+14	-1.17835E+12	8.92564E+14	-6.27283E+14	-7.07248E+13	3.26062E+14	7.65198E+14	-6.37598E+14	8.91108E+14	1.44873E+14	3.054E+14	9.41139E+14
668	9141516	-8.86756E+14	-1.16039E+14	8.93163E+14	-6.28379E+14	-7.06307E+14	3.25991E+14	7.64205E+14	-6.388E+14	8.90253E+14	1.45364E+14	3.05066E+14	9.41172E+13
669	9141516	-8.79571E+14	-1.16398E+13	8.94779E+11	-6.29485E+14	-7.05337E+14	3.25957E+14	7.63192E+14	-6.40023E+14	8.89253E+14	1.45898E+14	3.04745E+14	9.41193E+14
670	9141516	-8.81966E+14	-1.17356E+13	8.95019E+14	-6.30574E+13	-7.04402E+14	3.25874E+14	7.62205E+14	-6.41206E+14	8.8867E+14	1.46354E+14	3.0442E+14	9.41227E+13
671	9141516	-8.88552E+13	-1.16697E+14	8.95198E+14	-6.31657E+14	-7.03489E+14	3.25751E+14	7.61227E+14	-6.42376E+13	8.88102E+13	1.46777E+14	3.04068E+14	9.41275E+14
672	9141516	-8.87953E+14	-1.15799E+14	8.9442E+14	-6.32732E+14	-7.02553E+14	3.25684E+14	7.60243E+13	-6.43548E+14	8.87462E+14	1.47244E+14	3.03751E+14	9.41304E+14
673	9141516	-8.87355E+14	-1.14841E+14	8.94061E+14	-6.33791E+13	-7.01637E+14	3.25599E+14	7.59278E+14	-6.44692E+14	8.87111E+14	1.47668E+14	3.03444E+14	9.41337E+14
674	9141516	-8.89151E+14	-1.16997E+14	89286328125	-6.34864E+14	-7.00699E+14	3.2553E+14	7.58289E+14	-6.45865E+13	8.86364E+13	1.48141E+14	3.03118E+14	9.41368E+14
675	9141516	-8.93941E+14	-1.16218E+14	8.94839E+14	-6.3594E+14	-6.99758E+14	3.25452E+14	7.57293E+14	-6.47045E+14	8.85474E+14	1.4862E+12	3.02774E+14	9.41403E+14
676	9141516	-8.78972E+13	-1.16877E+11	8.96516E+14	-6.37001E+13	-6.98839E+14	3.25352E+14	7.56312E+14	-6.48202E+14	8.84648E+14	1.49071E+14	3.02419E+14	9.41446E+14
677	9141516	-8813671875	-1.1544E+13	8.95258E+13	-6.38099E+14	-6.97859E+13	3.25305E+14	7.55275E+14	-6.49432E+14	8.83109E+14	1.49635E+14	3.02045E+13	9.41477E+13
678	9141516	-8.8975E+14	-1.15859E+14	8.95797E+14	-6.39143E+14	-6.96906E+14	3.25299E+14	7.54297E+14	-6.50571E+14	8.82767E+14	1.5011E+14	3.01793E+14	9.41482E+14
679	9141516	-8.83163E+14	-1.16997E+14	8.93702E+14	-6.40183E+14	-6.95951E+14	3.25295E+14	7.53317E+14	-6.51712E+14	8.82324E+14	1.50593E+14	3.01536E+14	9.41487E+14
680	9141516	-9.06515E+14	-1.17057E+14	8.9442E+14	-6.41223E+14	-6.95031E+14	3.25215E+14	7.52341E+14	-6.5285E+14	8.81485E+14	1.51051E+14	3.01195E+14	9.41523E+14
681	9141516	-8.79571E+14	-1.17536E+14	8.96037E+14	-6.42303E+14	-6.94078E+14	3.25119E+14	7.51312E+14	-6.54056E+14	8.7979E+14	1.51582E+14	3.00775E+14	9.41572E+14
682	9141516	-8.96336E+14	-1.19152E+14	8.96576E+14	-6.43383E+14	-6.93094E+14	3.25083E+14	7.5027E+12	-6.55274E+14	8.78063E+14	1.5216E+14	3.00393E+14	9.416E+14
683	9141516	-8.92744E+14	-1.16039E+14	8.96516E+14	-6.44427E+14	-6.92168E+14	3.24988E+13	7.49282E+13	-6.56417E+14	8.77163E+14	1.52613E+14	3.00034E+14	9.41642E+14
684	9141516	-8.90349E+14	-1.1562E+14	8.97055E+14	-6.45462E+14	-6.91216E+14	3.2496E+14	7.48285E+14	-6.57567E+14	8.76053E+14	1.53129E+14	2.99709E+13	9.41661E+14
685	9141516	-8.9454E+14	-1.14721E+14	8.94001E+14	-6.46493E+14	-6.90293E+14	3.24874E+14	7.47298E+13	-6.58704E+14	8.74929E+14	1.536E+14	2.99341E+14	9.41702E+14
686	9141516	-8.67596E+14	-1.18134E+14	8.95498E+14	-6.47534E+14	-6.89339E+14	3.24826E+14	7.46285E+14	-6.59872E+14	8.73358E+14	1.5414E+14	2.98966E+14	9.41733E+14
687	9141516	-8.98132E+13	-1.16158E+14	8.92564E+14	-6.48557E+14	-6.88384E+14	3.24809E+14	7.4529E+14	-6.61009E+14	8.72368E+14	1.54649E+14	2.98655E+14	9.41748E+14
688	9141516	-8.95139E+14	-1.16817E+14	8.93761E+14	-6.49596E+13	-6.87422E+14	3.24771E+14	7.4428E+14	-6.62159E+14	8.71347E+14	1.55152E+14	2.98323E+13	9.4177E+14
689	9141516	-8.81966E+14	-1.15679E+14	8.95258E+13	-6.50652E+14	-6.86467E+14	3.24677E+14	7.43244E+14	-6.63347E+14	8.69399E+14	1.55692E+14	2.97882E+14	9.41821E+14
690	9141516	-8.90947E+11	-1.15919E+12	8.95139E+14	-6.51675E+14	-6.85507E+14	3.24655E+13	7.42238E+14	-6.64489E+14	8.68185E+14	1.56215E+14	2.97549E+14	9.41839E+14
691	9141516	-8.93941E+14	-1.15081E+14	8.96156E+14	-6.52668E+14	-6.84556E+14	3.24667E+14	7.41259E+14	-6.65591E+14	8.67407E+14	1.56717E+14	2.97275E+14	9.41842E+14
692	9141516	-8.92744E+14	-1.16518E+14	8.95139E+14	-6.53675E+14	-6.83599E+14	3.24655E+14	7.40258E+14	-6.66721E+14	8.66094E+14	1.57248E+14	2.96943E+14	9.41859E+14
693	9141516	-8.75978E+14	-1.15679E+14	8.93163E+14	-6.54692E+14	-6.82623E+14	3.24658E+14	7.39242E+14	-6.67864E+14	8.64808E+14	1.57794E+14	2.9662E+14	9.41869E+14
694	9141516	-8.99929E+14	-1.16338E+14	8.91247E+14	-6.55729E+12	-6.81667E+14	3.24577E+13	7.38208E+13	-6.69031E+14	8.62905E+14	1.58331E+14	2.96189E+14	9.41915E+13
695	9141516	-8.74781E+14	-1.1538E+14	8.93163E+14	-6.56733E+14	-6.80718E+14	3.24537E+14	7.37209E+14	-6.70145E+14	8.6183E+14	1.58821E+14	2.95851E+14	9.41939E+14
696	9141516	-8.86157E+12	-1.17416E+14	8.92803E+14	-6.57741E+13	-6.79773E+14	3.24477E+14	7.36202E+14	-6.71269E+14	8.60458E+13	1.5932E+14	2.95477E+14	9.41972E+14
697	9141516	-8.82565E+14	-1.1538E+14	8.94779E+11	-6.58757E+14	-6.78823E+13	3.24404E+14	7.35181E+14	-6.72409E+14	8.5877E+14	1.59837E+14	2.95068E+14	9.42012E+14
698	9141516	-8.89151E+14	-1.14482E+13	8.943E+13	-6.59759E+14	-6.77825E+14	3.24455E+14	7.34154E+14	-6.73549E+14	8.57322E+14	1.60425E+14	2.94763E+14	9.42008E+14
699	9141516	-8.68195E+14	-1.152E+14	8.93342E+13	-6.60763E+14	-6.76842E+14	3.24465E+14	7.33123E+14	-6.74693E+14	8.55577E+14	1.61005E+14	2.94406E+14	9.42021E+14
700	9141516	-9.01126E+14	-1.1562E+14	8.95677E+14	-6.6176E+14	-6.75872E+14	3.24454E+14	7.32104E+14	-6.75817E+14	8.54105E+14	1.61545E+14	2.94056E+14	9.42037E+14
701	9141516	-8.89151E+14	-1.13704E+14	8.91426E+13	-6.62756E+14	-6.7489E+14	3.24466E+14	7.31078E+14	-6.76947E+14	8.52501E+13	1.62112E+13	2.9371E+14	9.42048E+13
702	9141516	-9.01725E+14	-1.16458E+14	8.93462E+14	-6.63756E+14	-6.73927E+14	3.24422E+14	7.30056E+14	-6.78067E+14	8.5109E+14	1.62623E+13	2.93338E+14	9.42076E+14
703	9141516	-8.83762E+13	-1.1556E+14	8.92564E+14	-6.64743E+14	-6.72943E+14	3.24446E+13	7.29029E+14	-6.79191E+14	8.49454E+14	1.63198E+14	2.92998E+14	9.42082E+14
704	9141516	-8.97534E+14	-1.15679E+14	8.96156E+14	-6.65734E+14	-6.71969E+14	3.24431E+14	7.27997E+14	-6.8032E+14	8.47608E+14	1.6376E+14	2.92613E+13	9.42104E+14
705	9141516	-8.89151E+14	-1.16578E+14	8.92923E+14	-6.66725E+13	-6.70993E+14	3.24416E+14	7.26961E+14	-6.81453E+14	8.45602E+14	1.64335E+14	2.92216E+14	9.42127E+14
706	9141516	-8.9454E+14	-1.16817E+14	8.96276E+14	-6.67691E+14	-6.69993E+13	3.24496E+14	7.25937E+14	-6.82562E+14	8.44071E+14	1.64936E+14	2.91922E+14	9.42113E+14
707	9141516	-8.86157E+12	-1.17176E+14	8.9436E+14	-6.68666E+14	-6.68987E+14	3.24564E+14	7.24898E+13	-6.83688E+14	8.42244E+14	1.65555E+12	2.91594E+13	9.42106E+14
708	9141516	-8.96935E+14	-1.1538E+14	8.9442E+14	-6.69651E+14	-6.68019E+14	3.24528E+14	7.23865E+14	-6.84803E+14	8.40459E+14	1.66094E+14	2.91196E+14	9.42135E+14
709	9141516	-8.72386E+14	-1.16757E+14	8.91307E+14	-6.70613E+14	-6.67017E+14	3.24604E+14	7.22836E+14	-6.85908E+14	8.38896E+14	1.66693E+13	2.90893E+14	9.42123E+13
710	9141516	-9.04719E+14	-1.155E+14	8.93582E+14	-6.71579E+14	-6.66035E+14	3.24622E+14	7.21812E+14	-6.87004E+14	8.37431E+14	1.67241E+14	2.90556E+14	9.42129E+14
711	9141516	-8.82565E+14	-1.15799E+14	8.94061E+14	-6.72554E+14	-6.6503E+14	3.24663E+14	7.20764E+14	-6.88127E+14	8.35541E+14	1.67843E+13	2.902E+14	9.42132E+14
712	9141516	-8.87953E+14	-1.16637E+14	8.97893E+14	-6.73494E+14	-6.64075E+14	3.2467E+14	7.19765E+14	-6.89186E+14	8.34301E+14	1.68354E+14	2.89876E+14	9.42141E+14
713	9141516	-9.02922E+13	-1.16877E+11	8.93103E+14	-6.74443E+14	-6.63113E+14	3.24665E+14	7.18755E+14	-6.90256E+14	8.3291E+14	1.6887E+13	2.89529E+14	9.42155E+14
714	9141516	-8.77775E+14	-1.19571E+14	8.96875E+14	-6.7539E+14	-6.62163E+13	3.24636E+14	7.17745E+14	-6.91326E+14	8.31277E+14	1.69385E+14	2.8915E+14	9.42179E+14
715	9141516	-8.91546E+14	-1.15799E+14	8.95318E+14	-6.76319E+13	-6.6118E+14	3.24706E+14	7.16735E+14	-6.92391E+14	8.2985E+14	1.69955E+14	2.88852E+13	9.42168E+14
716	9141516	-8.87953E+14	-1.16278E+14	8.94839E+14	-6.7729E+13	-6.60142E+14	3.24792E+14	7.15655E+14	-6.93536E+14	8.27408E+14	1.70634E+13	2.88479E+14	9.42159E+14
717	9141516	-8813671875	-1.15799E+14	8.96097E+14	-6.78225E+14	-6.59181E+14	3.24794E+14	7.14652E+14	-6.94582E+14	8.26362E+14	1.71124E+14	2.88161E+14	9.42168E+14
718	9141516	-8.83762E+13	-1.1562E+14	8.95258E+13	-6.792E+14	-6.58149E+13	3.24849E+14	7.1357E+14	-6.95721E+14	8.24049E+14	1.7177E+14	2.87772E+14	9.42169E+14
719	9141516	-8813671875	-1.1532E+14	8.97414E+14	-6.80145E+14	-6.57189E+14	3.24816E+14	7.12547E+14	-6.96787E+14	8.22452E+14	1.72277E+13	2.87385E+14	9.42194E+12
720	9141516	-8.8017E+14	-1.17296E+14	8.96396E+14	-6.81083E+14	-6.56188E+14	3.24873E+14	7.11509E+13	-6.97867E+14	8.20758E+14	1.72861E+13	2.8705E+14	9.4219E+14
721	9141516	-8.82565E+14	-1.17835E+12	8.94959E+14	-6.82014E+14	-6.55193E+14	3.24928E+14	7.1047E+14	-6.98948E+13	8.18799E+14	1.7346E+14	2.86695E+14	9.42188E+14
722	9141516	-8.99929E+14	-1.16099E+14	8.93043E+14	-6.82953E+14	-6.54206E+14	3.24945E+14	7.0943E+14	-7.00025E+14	8.16969E+14	1.74023E+14	2.86321E+14	9.42198E+14
723	9141516	-8.82565E+14	-1.1538E+14	8.9436E+14	-6.83886E+14	-6.53201E+14	3.25006E+14	7.08382E+14	-7.01108E+14	8.14995E+13	1.74628E+14	2.85964E+14	9.42194E+13
724	9141516	-8.86756E+14	-1.16458E+14	8.92145E+14	-6.84787E+14	-6.52243E+14	3.25031E+14	7.07384E+14	-7.0213E+14	8.13692E+13	1.75142E+14	2.85642E+13	9.42196E+14
725	9141516	-8.69991E+14	-1.1538E+14	8.93702E+14	-6.85718E+14	-6.51236E+14	3.25087E+13	7.0633E+14	-7.03215E+14	8.11602E+14	1.75752E+14	2.85272E+14	9.42195E+14
726	9141516	-8.82565E+14	-1.17236E+14	8.92265E+14	-6.86653E+14	-6.50225E+14	3.25138E+14	7.05268E+14	-7.04304E+14	8.09441E+13	1.76364E+13	2.8489E+14	9.42196E+14
727	9141516	-8.90947E+11	-1.152E+14	8.93342E+13	-6.87561E+14	-6.49228E+13	3.25212E+14	7.0423E+14	-7.05366E+14	8.07394E+14	1.76975E+14	2.84537E+14	9.42188E+14
728	9141516	-8.8975E+14	-1.15081E+14	8.95618E+14	-6.88471E+14	-6.48236E+14	3.25265E+14	7.03201E+14	-7.06409E+14	8.05922E+14	1.77527E+14	2.84212E+14	9.42182E+14
729	9141516	-90052734375	-1.152E+14	8.93821E+12	-6.89372E+14	-6.4726E+14	3.25301E+14	7.02176E+14	-7.07449E+14	8.04075E+14	1.78089E+14	2.83849E+14	9.42186E+13
730	9141516	-8.9933E+14	-1.13943E+14	8.94899E+14	-6.90272E+14	-6.4625E+14	3.25401E+14	7.01135E+14	-7.08501E+14	8.02239E+14	1.78703E+14	2.83526E+14	9.42167E+13
731	9141516	-8.98731E+14	-1.15919E+12	8.93582E+14	-6.9118E+14	-6.45248E+14	3.25461E+14	7.00078E+14	-7.09573E+14	7.998E+14	1.79331E+14	2.83129E+14	9.42167E+14
732	9141516	-8.8975E+14	-1.15141E+14	8.93223E+14	-6.92072E+14	-6.44242E+14	3.25558E+14	6.99039E+14	-7.10618E+14	7.97885E+14	1.79944E+14	2.82797E+14	9.4215E+14
733	9141516	-8.8975E+14	-1.14242E+14	8.92384E+13	-6.92993E+13	-6.43223E+14	3.25615E+14	6.97967E+14	-7.11696E+14	7.95646E+14	1.80561E+14	2.82406E+13	9.42149E+14
734	9141516	-8.91546E+14	-1.15979E+14	8.9424E+14	-6.9391E+14	-6.42185E+14	3.2571E+14	6.96883E+14	-7.12785E+14	7.93164E+14	1.81225E+14	2.8202E+13	9.42137E+14
735	9141516	-8.83762E+13	-1.16218E+14	89286328125	-6.94816E+14	-6.4116E+14	3.25798E+14	6.95806E+14	-7.13865E+14	7.90556E+14	1.81889E+14	2.81622E+14	9.42128E+14
736	9141516	-9.01725E+14	-1.16937E+14	8.94121E+14	-6.95732E+14	-6.40133E+14	3.25864E+14	6.94724E+14	-7.14946E+14	7.88084E+14	1.82528E+14	2.81215E+13	9.42126E+13
737	9141516	-8.76577E+12	-1.16637E+14	8.95857E+14	-6.96603E+14	-6.39144E+14	3.25942E+14	6.93705E+14	-7.1595E+14	7.86713E+13	1.83076E+14	2.8091E+14	9.42111E+14
738	9141516	-8.81966E+14	-1.16458E+14	8.93402E+14	-6.97473E+14	-6.3813E+14	3.2607E+14	6.92663E+14	-7.16979E+14	7.84734E+14	1.83709E+14	2.8059E+14	9.42083E+14
739	9141516	-9.03521E+14	-1.1532E+14	8.96935E+14	-6.98337E+13	-6.37153E+14	3.26132E+14	6.9164E+14	-7.17988E+14	7.82813E+14	1.84281E+14	2.80233E+14	9.42078E+14
740	9141516	-8.97534E+14	-1.15919E+12	8.92803E+14	-6.99197E+14	-6.36137E+14	3.2627E+13	6.90607E+14	-7.18998E+14	7.81231E+14	1.8489E+14	2.79948E+14	9.42043E+14
741	9141516	-8.89151E+14	-1.14721E+14	8.98492E+14	-7.00077E+14	-6.35103E+14	3.264E+14	6.89538E+14	-7.20049E+13	7.78927E+13	1.85554E+14	2.79596E+14	9.42017E+14
742	9141516	-8.98731E+14	-1.16997E+14	8.95498E+14	-7.00954E+13	-6.3409E+14	3.26488E+13	6.88483E+14	-7.21079E+14	7.7694E+14	1.86158E+14	2.79241E+14	9.42003E+14
743	9141516	-8.86756E+14	-1.15799E+14	8.93522E+14	-7.0184E+14	-6.33069E+14	3.26564E+14	6.8741E+14	-7.22126E+14	7.74613E+14	1.86782E+14	2.78849E+14	9.41996E+14
744	9141516	-9.02324E+14	-1.15859E+14	8.93582E+14	-7.02678E+13	-6.3211E+13	3.2662E+14	6.86417E+14	-7.23083E+14	7.73433E+14	1.87284E+14	2.78545E+14	9.41986E+14
745	9141516	-8.97534E+14	-1.16398E+13	8.93821E+12	-7.03497E+13	-6.31148E+14	3.26717E+14	6.85442E+14	-7.24015E+14	7.72703E+14	1.87779E+14	2.78305E+14	9.41958E+14
746	9141516	-9.08311E+14	-1.14841E+14	8.94899E+14	-7.0435E+14	-6.30132E+12	3.26841E+13	6.84397E+14	-7.25023E+14	7.70879E+14	1.88391E+14	2.77986E+14	9.4193E+14
747	9141516	-8.85558E+14	-1.15141E+14	8.92205E+14	-7.05204E+13	-6.291E+14	3.26987E+14	6.8334E+14	-7.2604E+14	7.68908E+14	1.89034E+14	2.77667E+14	9.41896E+14
748	9141516	-8.93342E+13	-1.18015E+14	8.94061E+14	-7.06026E+14	-6.28101E+14	3.27133E+14	6.82325E+14	-7.27011E+14	7.67342E+14	1.89632E+14	2.77387E+14	9.41858E+14
