// Start Time: Unknown
// Update Rate: 100.0Hz
// Filter Profile: human (46.1)
// Option Flags: AHS Disabled ICC Disabled 
// Firmware Version: 4.0.2
PacketCounter	SampleTimeFine	Acc_X	Acc_Y	Acc_Z	Mat[1][1]	Mat[2][1]	Mat[3][1]	Mat[1][2]	Mat[2][2]	Mat[3][2]	Mat[1][3]	Mat[2][3]	Mat[3][3]
1	9.141516	1.11548034667969	9.98363891601563	-0.404159545898438	-0.615506826496977	0.0380008953070828	-0.787214887112458	-0.780111594982773	0.112755395141158	0.615395905283741	0.112148321026462	0.992895841879913	-0.0397567763849652
2	9.141516	0.884360961914063	9.97944763183594	-0.587378540039063	-0.615927907522697	0.0383083083693866	-0.78687056511512	-0.779723340697738	0.113035401105048	0.615836431260915	0.112535881859389	0.992852190211059	-0.0397517759003634
3	9.141516	0.9580078125	9.95010864257813	-0.521515502929688	-0.61611492361213	0.0389725026529423	-0.786691518283619	-0.779497950396421	0.113210517631008	0.616089542214034	0.113072305319198	0.992806387335761	-0.0393717034825306
4	9.141516	0.8861572265625	9.92196716308594	-0.564027099609375	-0.616516753171839	0.0390760152358772	-0.786371514038841	-0.779104061844952	0.113821752270302	0.616475035607133	0.113595571547273	0.992732428070829	-0.0397287349590283
5	9.141516	0.959205322265625	9.89741821289063	-0.4263134765625	-0.616606287338896	0.0393375153703592	-0.786288271754469	-0.778972974983487	0.114147846638085	0.616580386773098	0.114007853499303	0.992684657377344	-0.0397414185467323
6	9.141516	1.01189575195313	9.9489111328125	-0.598156127929688	-0.616524963326087	0.039297212785755	-0.786354054267566	-0.778976093888537	0.114706504499331	0.616472759313583	0.114425586063277	0.992621854934101	-0.040107834163159
7	9.141516	1.0394384765625	10.0411193847656	-0.724493408203125	-0.616579336268574	0.0386032253391562	-0.786345797394517	-0.778913000618296	0.115427994091322	0.616417809320801	0.11456203365167	0.992565448307299	-0.0411019619011737
8	9.141516	0.904119873046875	9.92915222167969	-0.647852783203125	-0.616615500028767	0.0386972237555515	-0.786312819428684	-0.778867118510472	0.115506120281496	0.616461148719618	0.114679278108419	0.99255269938232	-0.0410828689529162
9	9.141516	0.959205322265625	10.0381256103516	-0.733474731445312	-0.616708117951115	0.0383212195265009	-0.786258597019578	-0.778813536707773	0.115636081494075	0.616504478246044	0.114545066650311	0.992552155199261	-0.0414686256750637
10	9.141516	0.915496215820313	9.9584912109375	-0.4933740234375	-0.616897502726891	0.0382946228501864	-0.786111310814243	-0.778662662795021	0.115677230695125	0.616687308015718	0.114550987330065	0.992548386810169	-0.041542401738928
11	9.141516	0.948427734375	9.95669494628906	-0.62510009765625	-0.617225654763038	0.0378295163021639	-0.785876210861916	-0.778403436217069	0.116057013443001	0.616943157929603	0.114545107218943	0.992521887580841	-0.0421867406321651
12	9.141516	0.997525634765625	10.0165704345703	-0.63947021484375	-0.617564926238701	0.037422977119239	-0.785629099934136	-0.778133528838212	0.11640630648283	0.617217776079737	0.114550308500582	0.992496394247636	-0.0427683788313632
13	9.141516	1.04482727050781	10.0291442871094	-0.54845947265625	-0.618097923942438	0.0373882129775333	-0.78521148612867	-0.777693678115128	0.116613962785006	0.617732730801388	0.114662545924164	0.992473327205283	-0.0430022714314635
14	9.141516	0.9627978515625	9.96447875976563	-0.629291381835938	-0.618067774081692	0.0372120698595851	-0.785243585455155	-0.777702155314891	0.116884378188357	0.617670947798336	0.11476752267203	0.992448136676314	-0.0433025605182729
15	9.141516	1.08314758300781	10.0483044433594	-0.622705078125	-0.61767634551008	0.0370547384288185	-0.785558959313229	-0.777997556527494	0.117114643769881	0.617255184062397	0.114872687069471	0.992426877192786	-0.0435104492141084
16	9.141516	0.9532177734375	9.99441650390625	-0.506546630859375	-0.617718328945813	0.0367088969502119	-0.785542184079945	-0.777991245165877	0.117155730347055	0.617255342052296	0.114689531037672	0.9924348803481	-0.0438100415294481
17	9.141516	0.871188354492188	9.95489868164062	-0.590372314453125	-0.617500006446389	0.036151787199964	-0.785739645379408	-0.778157921523493	0.117634954210404	0.616954023180134	0.114734437763676	0.992398642597905	-0.0445077853963614
18	9.141516	0.952619018554688	9.98663269042969	-0.740659790039063	-0.617455363374505	0.0357020323676032	-0.78579529085181	-0.778176109600646	0.118133808911755	0.616835752562062	0.11485128073671	0.992355666118164	-0.0451598852557638
19	9.141516	0.885558471679688	9.95310241699219	-0.567020874023437	-0.618025902246466	0.0356572360387601	-0.785348677767091	-0.777726122780732	0.118184500134458	0.617393312137748	0.114830579972808	0.992351240965639	-0.0453095183936435
20	9.141516	1.04063598632813	9.98124389648438	-0.717308349609375	-0.617526465459705	0.0352708193826031	-0.785758890345457	-0.778096662287297	0.118676358190997	0.616831829710409	0.115007167577554	0.992306349524481	-0.0458416851695744
21	9.141516	0.890348510742188	9.9201708984375	-0.613125	-0.617403255854351	0.0346654145886677	-0.785882643078369	-0.77819578999887	0.119130516942286	0.616619195582735	0.114997965584103	0.992273263251842	-0.0465750893403126
22	9.141516	1.07236999511719	10.0902172851562	-0.74006103515625	-0.617221200460099	0.034167199553606	-0.786047449062242	-0.778315381947964	0.119721391015261	0.616353757801934	0.115165775844163	0.992219426844705	-0.0473017237125355
23	9.141516	0.925675048828125	10.0010028076172	-0.570613403320313	-0.617211016798058	0.0339542348563194	-0.786064673343377	-0.778330675937607	0.119825387580728	0.616314234287701	0.115116982403186	0.992214183745854	-0.0475299267402592
24	9.141516	0.966989135742188	10.0321380615234	-0.652044067382813	-0.617082411377171	0.0337915047096228	-0.786172647564385	-0.77843063725148	0.119960298202978	0.616161723773319	0.115130537031624	0.992203437337582	-0.0477210475398202
25	9.141516	0.969384155273438	9.9680712890625	-0.587378540039063	-0.617223902091812	0.0336658914447571	-0.786066957987541	-0.778319149794892	0.120063727689827	0.616282404710518	0.115125825726085	0.992195197048672	-0.0479033944980337
26	9.141516	0.952619018554688	10.0423168945313	-0.748443603515625	-0.617273541158607	0.0334503516673946	-0.786037180646591	-0.778282680346189	0.120211608008368	0.616299633922652	0.11510623292709	0.992184581251579	-0.048169615609473
27	9.141516	0.965791625976563	9.94711486816406	-0.668809204101563	-0.617504767598428	0.033287522141199	-0.785862457980346	-0.77809365247362	0.120405524733297	0.616500427894386	0.115143953264915	0.992166543723078	-0.0484501758833594
28	9.141516	0.989741821289063	9.953701171875	-0.63228515625	-0.617551899339339	0.0328560462985347	-0.785843579756178	-0.778080504862191	0.120538557826134	0.616491025101415	0.1149799094441	0.992164772756433	-0.0488741662374146
29	9.141516	0.955014038085938	9.94651611328125	-0.520317993164063	-0.617548125684182	0.0325305136582521	-0.785860088148701	-0.778079134049923	0.120831290243817	0.616435447110349	0.115009450133781	0.992139891839424	-0.0493078229166588
30	9.141516	0.99393310546875	10.0291442871094	-0.728684692382813	-0.617386620778059	0.0322073713552883	-0.78600028353343	-0.778197179283675	0.121158928696218	0.616222089957928	0.115077845996441	0.992110477329802	-0.0497382160240205
31	9.141516	0.971180419921875	9.91118957519531	-0.671204223632813	-0.617315089177188	0.0320277641178461	-0.786063803389885	-0.77822513975971	0.121541878722977	0.616111356462831	0.115272340655253	0.992069450211073	-0.0501048244958359
32	9.141516	1.063388671875	10.0357305908203	-0.63228515625	-0.616662494568105	0.0320615433679271	-0.786574488036517	-0.778689158582134	0.121919625961061	0.615450078489038	0.115631146754196	0.992022006934514	-0.0502172844539422
33	9.141516	0.834664306640625	9.97585510253906	-0.655636596679688	-0.61702392011756	0.0318636889074278	-0.786299044468432	-0.778414448486035	0.122004041558378	0.615780772866126	0.115552708280421	0.992018003451869	-0.0504762561649298
34	9.141516	0.955014038085938	9.99501525878906	-0.569415893554688	-0.616965558927945	0.0318404849124801	-0.786345778024698	-0.778440147601893	0.122193822267348	0.615710651524919	0.115691121950962	0.991995389767631	-0.0506034680777294
35	9.141516	1.07236999511719	10.0405206298828	-0.698148193359375	-0.61650946090516	0.0315665065704758	-0.786714459176495	-0.778788570534967	0.122480850892141	0.615212811609804	0.115777575629009	0.99196874790876	-0.0509269688259154
36	9.141516	0.910107421875	9.96867004394531	-0.521515502929688	-0.616743755333434	0.0314323925276684	-0.786536168880491	-0.778589640923355	0.12271987326738	0.615416934892176	0.11586764563093	0.991943464823084	-0.0512137802814875
37	9.141516	0.977766723632813	10.0057928466797	-0.7807763671875	-0.616692180375003	0.0310714056099519	-0.786590949870227	-0.778618091418307	0.123104114224853	0.615304188818042	0.115950948165328	0.99190722591094	-0.051724586080753
38	9.141516	1.02866088867188	10.0063916015625	-0.693956909179688	-0.616534387359273	0.0306399221353174	-0.786731558013957	-0.778757840644193	0.123301625616596	0.615087745574156	0.115851520657778	0.99189611567535	-0.0521586126103246
39	9.141516	1.00650695800781	9.99022521972656	-0.582588500976563	-0.616463269528407	0.0302668595132375	-0.786801725047392	-0.778788043029765	0.12381046862105	0.61494727570232	0.116026813091699	0.991844183869141	-0.0527531379990058
40	9.141516	0.926273803710938	9.93573852539063	-0.586181030273437	-0.616414634424857	0.0302791863025894	-0.786839354216427	-0.778810030793113	0.123937729496201	0.614893791758672	0.116137566716807	0.991827913543564	-0.0528152962021373
41	9.141516	0.92687255859375	9.9776513671875	-0.607137451171875	-0.616398601910253	0.0300383195955333	-0.786861145894854	-0.778809044257841	0.124241318555533	0.614833772125256	0.11622923963132	0.991797254543215	-0.0531880600818078
42	9.141516	1.00950073242187	9.89981323242188	-0.611927490234375	-0.61636264050005	0.0297305390852391	-0.786901004219405	-0.778842513562346	0.124435937838615	0.614752012149705	0.116195673171135	0.991782129512287	-0.0535422554285971
43	9.141516	0.987945556640625	9.95669494628906	-0.587378540039063	-0.616351540091655	0.0295090657701583	-0.786918035162505	-0.778841789416535	0.124689124255912	0.614701626279567	0.116259391384502	0.991756944684365	-0.0538694401793701
44	9.141516	0.956810302734375	9.972861328125	-0.515527954101562	-0.616347039952715	0.0291990193115685	-0.786933125248117	-0.778846896732098	0.124917721610318	0.614648740565266	0.116249033511278	0.991737354393254	-0.0542511023737205
45	9.141516	0.941841430664063	9.96747253417969	-0.607736206054687	-0.616524818038434	0.0289176350753405	-0.786804244475286	-0.778700191249807	0.12520426798521	0.614776303565615	0.116289126276662	0.991709464339197	-0.054673370573557
46	9.141516	0.975970458984375	9.96687377929688	-0.58198974609375	-0.616796866362962	0.0287991568579066	-0.786595343368561	-0.778486375863797	0.125306907967735	0.615026130672524	0.116278064308282	0.991699948260481	-0.054869156917886
47	9.141516	0.9532177734375	9.99262023925781	-0.598156127929688	-0.617016880911857	0.0286704167824133	-0.786427476549062	-0.778298782253819	0.125539931905094	0.61521600356256	0.116366551087613	0.991674206934307	-0.0551461067455059
48	9.141516	0.933458862304688	10.0351318359375	-0.607137451171875	-0.617031532893743	0.0283423857280476	-0.786427871191021	-0.778249575399411	0.126117843714608	0.615160050627001	0.116617690791037	0.991610305850045	-0.0557612367738184
49	9.141516	1.00830322265625	9.95549743652344	-0.670006713867188	-0.617184038298394	0.0280390500361644	-0.786319066628017	-0.778103386513582	0.126583537439608	0.615249321775628	0.116786055527968	0.991559589597289	-0.0563080590313101
50	9.141516	0.961001586914063	9.96208374023437	-0.625698852539063	-0.617108327254967	0.0278020811106827	-0.786386900144256	-0.778147193038705	0.126899824231925	0.615128751218712	0.11689421884149	0.991525833700677	-0.0566768268838004
51	9.141516	1.0346484375	10.0267492675781	-0.740659790039063	-0.61705415533246	0.0271179557285164	-0.786453295411782	-0.778181287410847	0.127505015555068	0.614960449892429	0.116953209919785	0.991467138883286	-0.0575748139732173
52	9.141516	0.9580078125	9.97465759277344	-0.707728271484375	-0.617404795819957	0.0266187062226618	-0.786195117370713	-0.77791501566846	0.127827590658271	0.615230310911322	0.11687406254622	0.991439131538358	-0.058214276242251
53	9.141516	0.971779174804688	9.94292358398438	-0.665216674804687	-0.617136951350302	0.0260712750884824	-0.786423722870385	-0.778063871065279	0.128769300739531	0.614845573888245	0.117297040972774	0.991331809134718	-0.0591831764669516
54	9.141516	1.04303100585938	10.0016015625	-0.722098388671875	-0.616987721750091	0.0253960025462415	-0.786562899115069	-0.77814818710092	0.129569949252014	0.614570603887284	0.117522551543023	0.991245010734229	-0.0601812144553071
55	9.141516	0.989741821289063	9.90280700683594	-0.727487182617188	-0.617109234629852	0.0248972737238095	-0.786483514319073	-0.778003503658378	0.1303785509469	0.614582770461615	0.117842016402666	0.991151632806055	-0.0610876415983254
56	9.141516	0.983754272460937	9.97405883789063	-0.81670166015625	-0.617197638903459	0.024132506371799	-0.786437980179118	-0.777900316328759	0.131262740502277	0.614525175083535	0.11806003721672	0.991053840662578	-0.0622423691735742
57	9.141516	1.08793762207031	10.0279467773438	-0.81670166015625	-0.617157362374824	0.0235793123561062	-0.786486367393207	-0.777891996490073	0.132028544302638	0.614371634506359	0.118325110873552	0.990965428013581	-0.0631402297954492
58	9.141516	0.982556762695313	9.93753479003906	-0.681383056640625	-0.617271058789846	0.0229321433541726	-0.786416274489311	-0.777756815864832	0.132921884694465	0.614350150927849	0.118620299090253	0.990861185722024	-0.0642132017055965
59	9.141516	1.04722229003906	10.0339343261719	-0.904718627929687	-0.617096785259233	0.0222803795800774	-0.786571765516973	-0.77782517733785	0.133995519693578	0.614030287690591	0.119077920380152	0.990731439587851	-0.0653579642440182
60	9.141516	1.01249450683594	9.99262023925781	-0.855620727539063	-0.617271421615692	0.021395585202489	-0.786459293918246	-0.77768774309401	0.134695388514483	0.614051240984234	0.119070425790317	0.990656035789807	-0.0665045295851139
61	9.141516	0.968785400390625	9.86508544921875	-0.879570922851563	-0.617598682952846	0.0204354962172815	-0.786227866021845	-0.777373381347022	0.13593346523013	0.6141764559177	0.119425678930489	0.990507184994073	-0.0680663183014124
62	9.141516	1.07596252441406	10.0063916015625	-0.94603271484375	-0.617416829516522	0.019434683895155	-0.786396052693337	-0.777462560979031	0.137152326567199	0.613792477628336	0.119784911010083	0.990359294589141	-0.0695704155169889
63	9.141516	1.06159240722656	9.97166381835938	-1.02806213378906	-0.617667174098906	0.0181614856074347	-0.786229878903875	-0.77724476806496	0.138331058580988	0.613803786846831	0.119907600077383	0.990219510347274	-0.0713266343751632
64	9.141516	1.02267333984375	9.89202941894531	-1.15200439453125	-0.617693187780647	0.0171838063087706	-0.786231417949019	-0.777158067994383	0.139641485961083	0.613616812636208	0.120334795967836	0.990053014842803	-0.0729010608980141
65	9.141516	1.15739318847656	9.93693603515625	-1.09452392578125	-0.61698016667993	0.0153620170693864	-0.786828750335907	-0.777642453633254	0.141647573222206	0.612542389804585	0.120862269674443	0.989797945760558	-0.0754475866898503
66	9.141516	1.03584594726562	9.96388000488281	-1.34540222167969	-0.616842313134003	0.0136220492762656	-0.786968868825831	-0.777708553090915	0.143338197686081	0.612065002702607	0.121140278919641	0.989580012357576	-0.0778230811883636
67	9.141516	1.13284423828125	9.93753479003906	-1.312470703125	-0.616334918487675	0.0123295781709541	-0.787387610872128	-0.777986205045808	0.145291780023169	0.611250982343686	0.121937414320681	0.989312023660799	-0.0799561556664732
68	9.141516	1.21726867675781	9.96148498535156	-1.3939013671875	-0.615658933564159	0.0108272028321086	-0.787938353680969	-0.77840925133323	0.147274486667509	0.610237054771064	0.122650376931682	0.989036398347227	-0.0822428585523527
69	9.141516	1.13044921875	10.0351318359375	-1.55556518554688	-0.615344254477438	0.00904046197960834	-0.788206647097575	-0.778581599824721	0.14923003660047	0.609541703733716	0.123134645392695	0.98876117754664	-0.0847891082663187
70	9.141516	1.19511474609375	9.91178833007813	-1.62262573242188	-0.614720560634565	0.0075018420452192	-0.788709296698761	-0.778959618180805	0.151249178381079	0.60856026758462	0.123856956109622	0.988467201481656	-0.0871323477147372
71	9.141516	1.20349731445313	9.94112731933594	-1.74477172851563	-0.61392313187044	0.00601483589239793	-0.789342897544266	-0.779441111549324	0.153451959671751	0.607391183422721	0.124779572771923	0.988137803052837	-0.0895194972995801
72	9.141516	1.2502001953125	9.85490661621094	-1.848955078125	-0.612845548631575	0.00378976919191654	-0.790193628911253	-0.780139470343384	0.156180859673852	0.605796951035477	0.125708950893752	0.987721203944214	-0.0927581961024675
73	9.141516	1.20828735351563	9.76269836425781	-1.92439819335938	-0.612156404007999	0.00140155750528476	-0.790735463140837	-0.780574209213412	0.158736974739884	0.604571316522118	0.126366296704669	0.987319911926722	-0.0960778359985209
74	9.141516	1.25139770507813	9.90639953613281	-2.28844116210937	-0.611300130501595	-0.00128445736655702	-0.791397814387939	-0.781055210685008	0.162129003655984	0.603048044549782	0.12753394963903	0.98676873498444	-0.100112713212048
75	9.141516	1.16517700195313	9.7956298828125	-2.19144287109375	-0.610774808972	-0.00376695900439206	-0.791795391970095	-0.781329890257735	0.164983314446511	0.601917027956578	0.128365631362342	0.986289164481747	-0.103710890030142
76	9.141516	1.30887817382812	9.73575439453125	-2.41358093261719	-0.610309786360559	-0.00637069479384916	-0.792137222279305	-0.781559597440583	0.167905309512913	0.600809789106242	0.129176469687953	0.985782542595078	-0.107453331236127
77	9.141516	1.32743957519531	9.74234069824219	-2.45429626464844	-0.609358324081937	-0.00955808359932581	-0.792837357791598	-0.78210951562802	0.171612034453013	0.599044251449759	0.130334716925915	0.985118242988529	-0.11204868984078
78	9.141516	1.3268408203125	9.63456481933594	-2.65068786621094	-0.608712408718151	-0.013517346156348	-0.793275793671682	-0.782431152505717	0.175844524605115	0.5973945051262	0.131418016501251	0.984325141667778	-0.117615136864208
79	9.141516	1.3268408203125	9.67408264160156	-3.00215698242188	-0.608097595243197	-0.0180551425852553	-0.793656932487626	-0.782751298922748	0.180315791791911	0.59563967233992	0.132354518979113	0.983443047185084	-0.123782285683878
80	9.141516	1.31666198730469	9.59025695800781	-3.03329223632812	-0.607420752037675	-0.0226280856973368	-0.794057932226396	-0.783072463847409	0.185115618663667	0.593742136024315	0.133557277442803	0.982456196206448	-0.130162499121767
81	9.141516	1.47832580566406	9.53876403808594	-3.25483154296875	-0.606538910693422	-0.027941606451659	-0.794562657342854	-0.783506820367439	0.190713890384283	0.591392656745243	0.135009674662753	0.981247919051751	-0.137567834554685
82	9.141516	1.4944921875	9.47050598144531	-3.48116088867188	-0.604810651547255	-0.0334639796518911	-0.795665908431952	-0.784584354074487	0.196286358892762	0.58813183611682	0.136497132264767	0.97997542182367	-0.14497139547171
83	9.141516	1.5855029296875	9.45194458007813	-3.79131591796875	-0.603043684423576	-0.0396232249782058	-0.796723486988532	-0.785632895416789	0.2026237185923	0.584572136098585	0.138272442358816	0.978454714693611	-0.153320262776884
84	9.141516	1.599873046875	9.37710021972656	-4.0236328125	-0.60156991349831	-0.0445275882745985	-0.79757816736423	-0.78641219025921	0.208307650270589	0.581518520642686	0.140248016689534	0.977049239660517	-0.160328653376302
85	9.141516	1.580712890625	9.18489990234375	-4.27630737304688	-0.600274516490558	-0.0492138569919534	-0.798278460896949	-0.787030971064456	0.213946202584181	0.578627058635481	0.142312175998286	0.975604950110332	-0.167159282969414
86	9.141516	1.46455444335938	9.17412231445313	-4.64693664550781	-0.59958379547863	-0.054364236351552	-0.798463400542162	-0.787199343426745	0.219923877982584	0.576151613381065	0.144279124990217	0.974001035779231	-0.174658284639015
87	9.141516	1.60346557617188	9.25854675292969	-4.8523095703125	-0.598620466479132	-0.0598170323850192	-0.798796256719419	-0.78758039947662	0.225939851794047	0.573295994867863	0.146187042765612	0.972302990845927	-0.182362941738477
88	9.141516	1.62023071289063	9.06455017089844	-4.89961120605469	-0.597539560354253	-0.0648331653807664	-0.79921407299819	-0.78801915365656	0.231739478568496	0.570370605434047	0.148230520750771	0.970614998204495	-0.18956328225277
89	9.141516	1.80644348144531	8.75319763183594	-5.29598693847656	-0.595736245106638	-0.0709323071884221	-0.800041832695748	-0.788996046289048	0.238055933352674	0.56640498897506	0.150278292532536	0.968657824204458	-0.197783857786703
90	9.141516	1.65615600585938	8.71427856445313	-5.39118896484375	-0.595056136576062	-0.0774965946223705	-0.799939042768327	-0.78916462274585	0.244685642251493	0.563336608682922	0.152076929642771	0.966500498860663	-0.206759263813056
91	9.141516	1.64537841796875	8.51848571777344	-5.99353637695313	-0.593394055979091	-0.0850065138609544	-0.800410761378113	-0.789856595956512	0.252927107023802	0.558707827362891	0.154951773635137	0.963743623135208	-0.217228397576255
92	9.141516	1.75195678710938	8.4256787109375	-6.17735412597656	-0.591807456850823	-0.0922975137259392	-0.800777811240903	-0.79054742122777	0.260532921969533	0.554217801374279	0.157476057881457	0.961043061225681	-0.227150887438479
93	9.141516	1.83398620605469	8.38436462402344	-6.56953857421875	-0.590009663700553	-0.0992633886451844	-0.801271100448928	-0.791249056313309	0.268569675608469	0.54935895389705	0.160665888175615	0.958132093721026	-0.237000766577883
94	9.141516	1.6477734375	8.4065185546875	-6.92040893554688	-0.588485253979669	-0.106713548653227	-0.801434541545546	-0.79166627715283	0.277323622002373	0.544385997522405	0.164163368226479	0.954831831901995	-0.247682379912696
95	9.141516	1.9543359375	7.83351013183594	-7.35809875488281	-0.586061419284569	-0.113824318922072	-0.80223190989145	-0.792586688978077	0.286230704016062	0.538403496026204	0.168339993111935	0.951375850282314	-0.257964412698104
96	9.141516	1.97888488769531	7.4676708984375	-7.19763244628906	-0.584048767165184	-0.119947576354301	-0.802807334607475	-0.793271943646357	0.293993624126818	0.533186057953798	0.17206586237938	0.948251194515203	-0.266857660755939
97	9.141516	2.0549267578125	7.44910949707031	-7.67603759765625	-0.581270081635426	-0.12653233764184	-0.803812577487089	-0.794517671150291	0.301540740167953	0.527081447452745	0.175689391897926	0.94501997309573	-0.275808788882229
98	9.141516	2.02558776855469	7.0365673828125	-7.74130187988281	-0.578432494011051	-0.13343851187923	-0.804742203080969	-0.795746789664052	0.309328629204336	0.52067537477196	0.179451655360183	0.941546580208342	-0.28510899790513
99	9.141516	2.05253173828125	6.85394714355469	-7.89637939453125	-0.576097486956714	-0.140433952610301	-0.805226670246587	-0.796594086727999	0.317217912473381	0.514597568004374	0.183165352925012	0.937897169715464	-0.294617298418775
100	9.141516	2.11360473632813	6.95872924804688	-8.3155078125	-0.573875183807567	-0.146930940865021	-0.805654126797816	-0.797357297200364	0.324627800700407	0.508761370009308	0.186784940536337	0.934359721750107	-0.303452296679232
101	9.141516	2.19323913574219	6.70006713867188	-8.24066345214844	-0.571271074922894	-0.153152095775074	-0.806345952129819	-0.798347833890836	0.331711316390881	0.502601570530812	0.190499593380802	0.930866283704556	-0.311765724196579
102	9.141516	2.07229064941406	6.57133483886719	-8.74900634765625	-0.569302683903228	-0.158958714276244	-0.806614270426841	-0.798816181477767	0.338938234579603	0.497004608981992	0.194389203172043	0.927282589233566	-0.319937239774354
103	9.141516	2.1890478515625	6.56355102539063	-8.73104370117188	-0.567003745218557	-0.163754566761509	-0.80727392796552	-0.799430023138501	0.345616800608375	0.491386472384016	0.198540653300288	0.923976985104056	-0.326876337450592
104	9.141516	2.404599609375	6.52642822265625	-8.84181335449219	-0.565338166382394	-0.167879349539122	-0.807594750868104	-0.799755464979434	0.351264375392024	0.486831115291516	0.201950374763017	0.921102525552271	-0.332845585150689
105	9.141516	2.44591369628906	6.25339599609375	-8.82385070800781	-0.563785351280903	-0.171780036585768	-0.80785994869882	-0.800035560196455	0.356549436479262	0.482509690853423	0.205156477114941	0.918348582171777	-0.338447487094931
106	9.141516	2.07229064941406	6.34081420898438	-8.78612915039063	-0.561402672174558	-0.175225383800986	-0.808778773551249	-0.800822859457808	0.361378412440022	0.477586003555537	0.20858999843014	0.915806588693337	-0.343203299315125
107	9.141516	2.43693237304688	6.207890625	-8.89270751953125	-0.558660792537465	-0.177555964758129	-0.810167882762716	-0.801801890254217	0.365488373291649	0.472791685389442	0.212159957735139	0.913724317487192	-0.34654873245532
108	9.141516	2.45010498046875	6.43122619628906	-8.9286328125	-0.557562381658534	-0.179685359813947	-0.810455033933281	-0.801857361534075	0.369221080219064	0.469787787916502	0.214823095389849	0.911805333056569	-0.34994581337219
109	9.141516	2.30760131835938	6.23603210449219	-8.78133911132813	-0.555563784739997	-0.181295031633167	-0.811468417494174	-0.80249077612839	0.372340914831845	0.466230412318887	0.217617635577233	0.910216652587347	-0.352346718501053
110	9.141516	2.25670715332031	6.37973327636719	-8.52447326660156	-0.553339702275655	-0.182296835324456	-0.812762596159652	-0.803317172097498	0.374766330797898	0.462851723896065	0.220219651481806	0.909020385432015	-0.353815268141814
111	9.141516	2.347119140625	6.40188720703125	-8.63464416503906	-0.551501321269582	-0.182667583301692	-0.813928035300803	-0.803991358346416	0.376492146269207	0.460273353021757	0.222360491864427	0.908232469034402	-0.354499074539673
112	9.141516	2.20641174316406	6.35997436523438	-8.60650268554688	-0.54995423344712	-0.183157721480016	-0.814864154430565	-0.80446941686963	0.378369628513345	0.457892325268847	0.224453332421305	0.907353113887269	-0.355430764402926
113	9.141516	2.33454528808594	6.67132690429688	-8.51429443359375	-0.548473278409843	-0.183183113492918	-0.815855998201521	-0.80490477727547	0.379970432931634	0.455796851258181	0.22650687051276	0.90667878381971	-0.355848592215465
114	9.141516	2.30101501464844	6.5527734375	-8.1478564453125	-0.546880757496331	-0.18292700872567	-0.816981729635931	-0.805580676464613	0.380671330101188	0.454014440459562	0.227950018177353	0.906436455532141	-0.355544288795748
115	9.141516	2.07708068847656	6.76473266601563	-8.17120788574219	-0.545060138396205	-0.183265578846735	-0.818121734915704	-0.806480730775216	0.381289706715414	0.451892675799407	0.229125023556535	0.90610809904936	-0.35562597826561
116	9.141516	2.1411474609375	6.91681640625	-7.91254577636719	-0.542730133783375	-0.183216403836208	-0.819680273795098	-0.80767720216992	0.381601225667644	0.449486419888212	0.23043771171067	0.905986895012439	-0.355086196700563
117	9.141516	1.9399658203125	7.18685485839844	-7.68561767578125	-0.541600669857158	-0.182767910496783	-0.820527028989855	-0.808226186415559	0.381627971938105	0.448475777078954	0.231169085308656	0.90606621277203	-0.354407776537861
118	9.141516	2.12019104003906	7.27427307128906	-7.71735168457031	-0.539829424615412	-0.182646816892014	-0.821720349388165	-0.809127194963569	0.381814112912744	0.446689115102486	0.232158081250212	0.906012209332672	-0.35389899950459
119	9.141516	1.95553344726563	7.28864318847656	-7.43473937988281	-0.538351189374633	-0.182201799434965	-0.822788248081837	-0.809820735117535	0.381994237433503	0.445276071152821	0.233170267985894	0.906025886412887	-0.353197847214743
120	9.141516	1.95972473144531	7.750283203125	-7.26169921875	-0.536556018521711	-0.181832031092421	-0.824041717061056	-0.81074444063149	0.381970144202517	0.443612737557254	0.234096328406196	0.906110325184916	-0.352367688104379
121	9.141516	2.01840270996094	7.75806701660156	-7.10063415527344	-0.535221330161587	-0.181089091419923	-0.825072644503966	-0.811371189821708	0.381920303112275	0.442508389070686	0.234978552356097	0.9062801018666	-0.351342364216583
122	9.141516	1.93577453613281	8.00176025390625	-6.96052551269531	-0.533421945337855	-0.180615031265476	-0.826340873195166	-0.812316211320694	0.381734382768071	0.440932232705066	0.235803734189203	0.906453016705031	-0.35034201496363
123	9.141516	1.8345849609375	8.03409301757813	-6.90843383789062	-0.531560845586434	-0.179619392946658	-0.827755967128543	-0.813308281296986	0.381199082955828	0.439564442064389	0.236585517336073	0.906876029472116	-0.348716446637828
124	9.141516	1.85015258789063	8.11971496582031	-6.52044067382813	-0.529864844976235	-0.178403602955517	-0.829105180607865	-0.814153048004342	0.380761181145464	0.438378532045025	0.237482758286891	0.907299882831031	-0.3469998013418
125	9.141516	1.83578247070313	8.21611450195313	-6.36236938476563	-0.528048953409794	-0.177604417147219	-0.83043420799761	-0.815146265088243	0.380204713795923	0.437013663539309	0.238119443379806	0.907689950708477	-0.345540278502137
126	9.141516	1.74058044433594	8.44723388671875	-6.1839404296875	-0.52688095657418	-0.176448717331069	-0.831421859077386	-0.815777470244202	0.379531276071487	0.436420817016695	0.238544705750195	0.908197038442523	-0.343910690038538
127	9.141516	1.70285888671875	8.56039855957031	-5.96719116210938	-0.525443234862032	-0.175506381595787	-0.832530430048583	-0.816553966687887	0.378949457872493	0.435473222901732	0.239058625495925	0.908622483981823	-0.342426861064813
128	9.141516	1.75674682617188	8.81307312011719	-5.96419738769531	-0.523617983619145	-0.174457684720409	-0.833899708281886	-0.81755094946922	0.378233563145573	0.434223233754462	0.239655277956899	0.909122592367057	-0.340677941456742
129	9.141516	1.80165344238281	8.52207824707031	-5.64146850585938	-0.521777485102798	-0.173351096566051	-0.835282978013528	-0.818560284236659	0.377457350002526	0.432995392584576	0.24022347327062	0.909656718904674	-0.338847069695728
130	9.141516	1.59089172363281	8.68074829101563	-5.53369262695313	-0.52023995879272	-0.17148333519206	-0.836626470431552	-0.819554649158734	0.375738784290616	0.432608995539985	0.240167779516017	0.910721599464522	-0.336014294266075
131	9.141516	1.69028503417969	9.19028869628906	-5.19359985351563	-0.518780495318742	-0.168300966322062	-0.838177536332191	-0.820548591516514	0.373183963484707	0.432936182777681	0.239930837195025	0.912364244220972	-0.331699682288044
132	9.141516	1.45976440429688	8.91845397949219	-4.84452575683594	-0.517218230099859	-0.167053113926113	-0.839391779552289	-0.821568312210419	0.371726088584337	0.432255969811308	0.239814117232687	0.913188355265977	-0.329509054477306
133	9.141516	1.580712890625	9.11125305175781	-4.81099548339844	-0.515577588492503	-0.166320137715239	-0.840545871463681	-0.822544859315704	0.370841722438118	0.431157014685416	0.239999384702471	0.913681579484622	-0.3280034552454
134	9.141516	1.49688720703125	9.13759826660156	-4.41581726074219	-0.514093160362217	-0.165251654347748	-0.841665083750134	-0.823388303443986	0.369977607000335	0.43028859161026	0.240291331971054	0.914225607305789	-0.326269236560756
135	9.141516	1.50107849121094	9.07472900390625	-4.28947998046875	-0.512313402993062	-0.164711563940727	-0.842855312504981	-0.824356313247295	0.369472988392337	0.42886638905114	0.240773017431347	0.914527097221639	-0.325066981596668
136	9.141516	1.47413452148438	9.5273876953125	-4.4020458984375	-0.510712483557179	-0.16412629153778	-0.84394035308481	-0.8253057112949	0.368657713114947	0.427740544565133	0.240921651253841	0.914961229226088	-0.323732462027226
137	9.141516	1.52083740234375	9.24657165527344	-4.22541320800781	-0.509353394463903	-0.163557148056717	-0.84487169373086	-0.826102117477556	0.367956943851591	0.426805551710021	0.24106930755946	0.915345151727451	-0.322535024705616
138	9.141516	1.43820922851563	9.55193664550781	-4.05955810546875	-0.507976626046416	-0.163146696978422	-0.845779464550619	-0.826982431903995	0.367043609387924	0.425886189174572	0.240956022362286	0.915784987905194	-0.321369026533095
139	9.141516	1.29390930175781	9.21723266601563	-3.84939514160156	-0.507072970176675	-0.162482894116686	-0.846449237719351	-0.827586500919617	0.366141360443034	0.425489233316836	0.240785353399723	0.916264052166399	-0.320129036945699
140	9.141516	1.32983459472656	9.61420715332031	-3.84700012207031	-0.505910779651439	-0.162240181524965	-0.847190891435466	-0.828313923972395	0.36547121333309	0.424649073445701	0.240728740257423	0.916574555463758	-0.319281627862438
141	9.141516	1.23942260742188	9.4651171875	-3.5494189453125	-0.505607212198555	-0.160826288367499	-0.847641582240242	-0.828599137983273	0.364255305359863	0.42513708500973	0.240384723945143	0.917307460717031	-0.317430633377892
142	9.141516	1.38671630859375	9.64653991699219	-3.48415466308594	-0.504367319889787	-0.159634296496745	-0.848605030629199	-0.829431096455269	0.362853099508582	0.424713649898406	0.240120100908283	0.918071086332102	-0.315416894888006
143	9.141516	1.312470703125	9.73994567871094	-3.24165893554688	-0.503611988320832	-0.158665134489986	-0.849235150189164	-0.830033466132154	0.361508714067772	0.424683287584653	0.239623476145767	0.918769190139907	-0.313757493822025
144	9.141516	1.25199645996094	10.0501007080078	-2.98000305175781	-0.502646226019067	-0.157829631268055	-0.849962692688673	-0.830651896919134	0.360569879169645	0.424272068819328	0.239508241222371	0.919281877189678	-0.31234057158363
145	9.141516	1.08434509277344	9.94232482910156	-2.99257690429688	-0.502252335856438	-0.15681137045283	-0.85038390461218	-0.83111305327136	0.35904422125353	0.424662618871032	0.238733499552761	0.920052955693938	-0.310658775685059
146	9.141516	1.38971008300781	9.69743408203125	-2.64110778808594	-0.502212715782859	-0.155506659244348	-0.850646852128818	-0.831062042451226	0.358665229078722	0.425082503811559	0.238994288012918	0.920422149005863	-0.309361920598881
147	9.141516	1.02387084960938	9.94232482910156	-2.64350280761719	-0.502309612434737	-0.154759560668383	-0.850725885134215	-0.831183120506159	0.357637681539797	0.42571106272739	0.23836877614593	0.920947754828996	-0.308278379770822
148	9.141516	1.05320983886719	9.78425354003906	-2.49980163574219	-0.502315061595337	-0.153202514599905	-0.85100444676555	-0.831216609029652	0.356717992110064	0.42641672455265	0.238240483058022	0.921564573768562	-0.30652929485948
149	9.141516	1.15380065917969	9.74353820800781	-2.39861206054688	-0.50274828430445	-0.152110677919642	-0.850944477796148	-0.830930606935949	0.356436175610352	0.427209057925183	0.238324335907996	0.921854432315153	-0.305591093677351
150	9.141516	1.11009155273438	9.79383361816406	-2.43573486328125	-0.503344933623527	-0.151436749014243	-0.850711930587273	-0.830722723926381	0.35574089037212	0.428191750118548	0.23778905304463	0.922233880295692	-0.304862323495197
151	9.141516	1.07835754394531	9.74174194335938	-2.44172241210938	-0.503953553589066	-0.150677746202773	-0.850486350639565	-0.830456886056876	0.35519965659378	0.429155641179721	0.237428254901704	0.922566756801324	-0.304135501083675
152	9.141516	1.07236999511719	9.86209167480469	-2.13036987304688	-0.504569340478902	-0.150389401896858	-0.85017222281476	-0.830261990798101	0.354601790087435	0.430026274898129	0.236801197810864	0.922843756149378	-0.303783795570877
153	9.141516	1.17535583496094	9.8147900390625	-2.14174621582031	-0.505046411299299	-0.150709222330258	-0.849832249763627	-0.830182433638323	0.354131521246356	0.430567059281238	0.236061960747705	0.922972153406781	-0.303969002899306
154	9.141516	0.963995361328125	9.78904357910156	-1.97708862304688	-0.50561188776701	-0.150642985930118	-0.849507686686082	-0.830055915878945	0.35347007469579	0.431353779175423	0.23529512418035	0.923236479502739	-0.303760773393047
155	9.141516	0.937650146484375	9.79383361816406	-1.85075134277344	-0.506019088591095	-0.150848641325251	-0.84922869086705	-0.829973566451517	0.353085186790643	0.431827199074776	0.234709524675047	0.923350170996542	-0.303868229249902
156	9.141516	1.10949279785156	9.9872314453125	-1.97050231933594	-0.506842864499685	-0.151208705908079	-0.848673222131674	-0.829632376776205	0.352960487717448	0.432584111491541	0.234137630701301	0.923338952588845	-0.304343142721691
157	9.141516	0.966989135742188	9.7716796875	-1.72082153320313	-0.507505301235219	-0.15147505430505	-0.848229731347252	-0.829393284347578	0.3527058225994	0.433249792364195	0.233549029322082	0.923392609147248	-0.304632467532517
158	9.141516	1.07895629882813	10.0267492675781	-1.77590698242188	-0.507838695201656	-0.151953216123794	-0.847944620694957	-0.829320506517479	0.352563946156485	0.43350451132619	0.23308229689419	0.923368227729438	-0.305063532554001
159	9.141516	0.999920654296875	9.9776513671875	-1.59927429199219	-0.507696322981039	-0.151614767343297	-0.848090446800912	-0.829497974211687	0.351975876530081	0.433642817442638	0.232760723512881	0.923648171472407	-0.304461000664191
160	9.141516	1.04123474121094	10.0327368164063	-1.5184423828125	-0.507896935694742	-0.150702543771076	-0.848132917656671	-0.829462582216913	0.351241951152719	0.434305096047101	0.232448978087538	0.924076747381601	-0.303396831780922
161	9.141516	0.976569213867188	10.0279467773438	-1.47832580566406	-0.507681959819378	-0.150522709422392	-0.848293546846902	-0.829705976145631	0.350619350345552	0.434343256320952	0.232049608537011	0.924342460948	-0.302892710487419
162	9.141516	0.998124389648438	9.83275268554688	-1.51544860839844	-0.507081772473058	-0.150664388556227	-0.848627313988043	-0.830014609940592	0.350685399129601	0.433699778789983	0.232258096329814	0.924294321554715	-0.302879817470494
163	9.141516	0.932261352539063	9.89981323242188	-1.55796020507813	-0.50643990757953	-0.151411974101142	-0.848877514197209	-0.830472578268171	0.350548379892758	0.432933170476899	0.23202137133345	0.924224132693665	-0.303275181627491
164	9.141516	0.877774658203125	9.84712280273438	-1.70764892578125	-0.506533564669061	-0.152063786343693	-0.848705103523287	-0.830510043107009	0.350541079283462	0.432867208313566	0.231682576302251	0.924119882167679	-0.303851324203707
165	9.141516	0.886755981445313	9.95070739746094	-1.51544860839844	-0.506026856380643	-0.152299576539832	-0.848965052052976	-0.830730123804532	0.350813188475223	0.432223979200085	0.232000607812204	0.923977784244641	-0.304040741015299
166	9.141516	1.06518493652344	9.87406677246094	-1.71243896484375	-0.505131150841787	-0.153035799984789	-0.849365977875419	-0.831264150415235	0.350874145207021	0.431146432734495	0.232039722210851	0.923832981738723	-0.304450635026522
167	9.141516	0.801134033203125	9.83275268554688	-1.49988098144531	-0.505121071393279	-0.15403744743793	-0.849190890213333	-0.83143763630408	0.350711352273773	0.430944316963787	0.231439322872303	0.923728321625524	-0.305224225210421
168	9.141516	0.819695434570313	9.96867004394531	-1.41366027832031	-0.504650161340946	-0.154589946945092	-0.849370450958868	-0.831808766376122	0.350463056202235	0.430429811255242	0.231132842405381	0.923730260704337	-0.305450510919046
169	9.141516	0.915496215820313	9.98004638671875	-1.42683288574219	-0.504064013947172	-0.15526770029113	-0.849594851143631	-0.83223114711928	0.350303907852575	0.429742352936899	0.230891289588829	0.923676952938374	-0.305794210217409
170	9.141516	0.8765771484375	9.85191284179688	-1.25798400878906	-0.503922633820342	-0.15646539738106	-0.849458979907774	-0.832472626143189	0.350228664235554	0.429335777067369	0.230328690887244	0.923503363377831	-0.30674131117931
171	9.141516	0.824485473632813	9.97884887695313	-1.48910339355469	-0.503994304189651	-0.157317209858364	-0.849259110535041	-0.832587482857887	0.350052710560062	0.429256547088011	0.229756011309297	0.923425359902972	-0.307404912054621
172	9.141516	0.865200805664063	9.97585510253906	-1.35917358398438	-0.504352360848561	-0.15812098471228	-0.848897196543905	-0.832494893802655	0.350103284689435	0.42939485539789	0.229305359507773	0.923268890542343	-0.308210330549973
173	9.141516	1.01788330078125	10.0105828857422	-1.27834167480469	-0.504110627398794	-0.158386597212073	-0.848991260948648	-0.832611339814066	0.350260809044695	0.429040467159431	0.229414106272088	0.923163610348099	-0.308444673114065
174	9.141516	1.05799987792969	9.92615844726563	-1.23642883300781	-0.503659451941811	-0.159075442380736	-0.84913023742006	-0.832859753419842	0.350525678075126	0.428341429403476	0.229503349873404	0.92294460973633	-0.309033104627221
175	9.141516	0.878373413085938	9.95310241699219	-1.32803833007813	-0.503297085523527	-0.16000219913026	-0.849170972170507	-0.83307432894764	0.350864391891761	0.427646280178917	0.229519511484239	0.922655664251787	-0.309882750523696
176	9.141516	0.9532177734375	10.0189654541016	-1.38013000488281	-0.503133197622352	-0.160768357068014	-0.849123383741114	-0.833202710396495	0.351065580520151	0.427230852773982	0.229412791357069	0.922445929873237	-0.310585378957311
177	9.141516	0.875379638671875	9.95489868164062	-1.35977233886719	-0.502987127829298	-0.161640759413387	-0.849044294565541	-0.83332763662168	0.35129734793386	0.426796465984856	0.229279304082507	0.922205203970841	-0.311397756074992
178	9.141516	0.877774658203125	9.98363891601563	-1.41126525878906	-0.502596370762076	-0.162293135636568	-0.849151238721372	-0.833582791435072	0.351388223150597	0.426223000850939	0.229208677671905	0.922055993286914	-0.311891210718705
179	9.141516	0.965791625976563	10.0668658447266	-1.51664611816406	-0.50242233577787	-0.162985695348263	-0.849121581178663	-0.833728782883897	0.351499612203469	0.425845440520087	0.229059191263843	0.921891363302995	-0.312487121598474
180	9.141516	0.90771240234375	10.0315393066406	-1.51963989257813	-0.502148957337446	-0.163984490635973	-0.849090991281721	-0.833970217419813	0.351579761437613	0.425306181243844	0.228779590658052	0.921683654069189	-0.313303591936004
181	9.141516	0.897533569335938	10.0734521484375	-1.32264953613281	-0.502093599125144	-0.164652977610024	-0.848994354917459	-0.834062442499403	0.3516545641389	0.425063418247456	0.228564782347347	0.921535926854962	-0.3138943704275
182	9.141516	0.9723779296875	9.88843688964844	-1.36096984863281	-0.501812968187822	-0.165580040919652	-0.848979973266493	-0.83426611153044	0.351863314759991	0.424490592213764	0.228437737929634	0.921290105110848	-0.314707391261206
183	9.141516	0.855620727539063	9.97166381835938	-1.33522338867188	-0.501881255331738	-0.166278745190043	-0.848803030416753	-0.8342651202418	0.352078914133888	0.424313736956792	0.22829129351461	0.921081873190613	-0.315422364750977
184	9.141516	0.965791625976563	9.9584912109375	-1.44778930664063	-0.501401504968143	-0.166808831878356	-0.84898253481627	-0.834513853106664	0.352306863669628	0.423634869651143	0.228436336401964	0.920898847549854	-0.315851472677586
185	9.141516	0.976569213867188	9.99082397460938	-1.38731506347656	-0.501064951429787	-0.167544721466076	-0.84903632475738	-0.834715332053073	0.352538106255679	0.423045148977254	0.22843867641928	0.920676734769873	-0.316496636900446
186	9.141516	0.87418212890625	9.95010864257813	-1.38252502441406	-0.500516816579067	-0.168291784383072	-0.849211864984657	-0.835033459979989	0.352727446839172	0.422258770140025	0.228477651063303	0.920467937277275	-0.317075289811607
187	9.141516	1.02925964355469	9.93992980957031	-1.3939013671875	-0.499491441606575	-0.168810569650343	-0.849712475685812	-0.835613428849693	0.35269926076257	0.421133504940649	0.228601175167242	0.920383736835818	-0.317230641143462
188	9.141516	1.06278991699219	9.86628295898438	-1.4178515625	-0.4986835565638	-0.16965236712989	-0.850019284922468	-0.836109522368333	0.352728399048929	0.420123247523127	0.228551038102822	0.920217773590363	-0.317747812188404
189	9.141516	1.0011181640625	10.0560882568359	-1.40647521972656	-0.497500375700353	-0.170700244598516	-0.850502676463757	-0.83679646232984	0.352829343412959	0.418668287620455	0.228615521805219	0.919985261251933	-0.318374091704933
190	9.141516	1.01249450683594	9.90999206542969	-1.46156066894531	-0.496105786420218	-0.171483266337524	-0.851159525615845	-0.837584716631759	0.352798428083862	0.417115225814705	0.228759461324056	0.919851487202021	-0.318657104654764
191	9.141516	0.959205322265625	9.92196716308594	-1.40467895507813	-0.495297824554727	-0.172233770985092	-0.851478474844556	-0.838078661552971	0.352769493299046	0.416146418520112	0.228701163182299	0.919722356328142	-0.319071410861697
192	9.141516	0.937650146484375	10.0027990722656	-1.446591796875	-0.494030364681402	-0.173034950445406	-0.852052172520625	-0.838764178931229	0.352889419116162	0.414660957913426	0.228929357913273	0.919525945147941	-0.319473606554912
193	9.141516	1.025068359375	10.0890197753906	-1.456171875	-0.492274368203527	-0.172784807337615	-0.85311860650388	-0.839735415619496	0.352291365772152	0.413201192346711	0.229151430639587	0.919802263508682	-0.31851753151143
194	9.141516	0.9148974609375	10.0369281005859	-1.34839599609375	-0.491163726478934	-0.172296754192642	-0.853857143956767	-0.840391516540965	0.351578011408134	0.412474242614348	0.229129423508429	0.920166686198203	-0.317479096782313
195	9.141516	0.87418212890625	9.84532653808594	-1.18014587402344	-0.490192722876015	-0.171720239626331	-0.854531013914693	-0.840964079267497	0.350882017133117	0.41189953560834	0.229108078908557	0.920540042233509	-0.316410364595662
196	9.141516	1.04303100585938	9.88304809570313	-1.12326416015625	-0.488777391523831	-0.171952127564013	-0.855294760513221	-0.841691934298599	0.350804361299557	0.410476537490138	0.22945881824816	0.920526352647994	-0.316195959507294
197	9.141516	0.990939331054688	10.0584832763672	-1.02207458496094	-0.487348707523739	-0.172529576023799	-0.855993447797347	-0.842507187709837	0.350555029530605	0.409014437310053	0.229505720913887	0.920513289783393	-0.316199948450267
198	9.141516	1.00950073242187	10.0453106689453	-1.26876159667969	-0.485418398388375	-0.172311179016859	-0.857133499573949	-0.843564142498041	0.34990143628268	0.407392344526577	0.229713987379108	0.92080282497022	-0.315204126764314
199	9.141516	0.99872314453125	9.94831237792969	-1.04782104492188	-0.48338298410106	-0.172673812878945	-0.858210140366217	-0.84466741903698	0.349517217824771	0.405431456181484	0.229951825169887	0.92088081139194	-0.314802619606571
200	9.141516	0.955014038085938	9.94651611328125	-0.968785400390625	-0.481430600683445	-0.172872243700091	-0.859266992315935	-0.845713616310567	0.349104307755018	0.403602107890671	0.230202206576044	0.921000200686724	-0.314269906963002
201	9.141516	1.01249450683594	10.164462890625	-1.17176330566406	-0.479237458484995	-0.172416407229981	-0.86058354673021	-0.846930217209022	0.348132858196528	0.401886451901772	0.230305591688785	0.921453251967685	-0.312862971402908
202	9.141516	0.958606567382813	9.83514770507812	-0.866398315429688	-0.477123123717997	-0.172616981329913	-0.861717414568215	-0.848073691785509	0.347589735455861	0.399940481955782	0.230487609460637	0.921620721100754	-0.312235020974341
203	9.141516	0.85502197265625	9.86628295898438	-0.93884765625	-0.474614140963921	-0.173188170569347	-0.862987412869923	-0.849367792356419	0.347317876969666	0.397422502690609	0.230902079905448	0.921616053414939	-0.311942429918103
204	9.141516	0.895138549804688	10.0854272460938	-1.08554260253906	-0.472216913903179	-0.174281594869708	-0.864081658128113	-0.850612743576782	0.347240001503588	0.394819378729779	0.231233965257135	0.921439258467676	-0.312218747460819
205	9.141516	0.91729248046875	10.2057769775391	-1.06997497558594	-0.46999456670057	-0.174202045226094	-0.865308473731183	-0.851803370106679	0.346493113943559	0.392903984027397	0.231378749989813	0.921735411833972	-0.311235770155697
206	9.141516	1.00351318359375	10.1620678710938	-1.10769653320312	-0.46771845434004	-0.17341728024923	-0.866698271822856	-0.853080190715781	0.345156272451371	0.39130721408607	0.231286912033712	0.922384732364124	-0.30937480476515
207	9.141516	0.916094970703125	9.76928466796875	-0.8813671875	-0.465441507608719	-0.173245102972175	-0.867957566526776	-0.854206138842155	0.344674958364841	0.389269887662239	0.231724136333053	0.92259704496186	-0.308413062739477
208	9.141516	0.96040283203125	10.0004040527344	-0.659827880859375	-0.462494678122207	-0.173164575295952	-0.869547412491814	-0.855584254488469	0.344390878474144	0.386484807327814	0.232538719743716	0.922718241223387	-0.307435832546523
209	9.141516	0.902323608398438	9.84293151855469	-0.790955200195313	-0.459614092162713	-0.174239021507764	-0.870859144563266	-0.856880542488675	0.344777884829847	0.383254414242772	0.233475099721061	0.922371385894139	-0.307766801806119
210	9.141516	0.946631469726563	9.99082397460938	-0.865799560546875	-0.457041303190276	-0.175863112349599	-0.871886123810241	-0.858023698448467	0.34542530057805	0.38010090057954	0.23432579900418	0.921820767522232	-0.308768347609946
211	9.141516	0.908909912109375	10.2878063964844	-0.83107177734375	-0.453654608718062	-0.17526885747922	-0.873772466713613	-0.85974816624268	0.344164604097664	0.37733780082129	0.234585989844261	0.922405308356488	-0.306818937623742
212	9.141516	1.01668579101563	9.81	-0.677191772460938	-0.45008972095923	-0.175158425599699	-0.875636208152837	-0.861332463638581	0.343907819211048	0.373943577251695	0.235638770513547	0.922522052759139	-0.305659012633241
213	9.141516	1.11368408203125	9.93274475097656	-0.689765625	-0.446500740237263	-0.17658383075727	-0.877185977819221	-0.862889196388626	0.344381180704764	0.369897062886668	0.236768502388656	0.922073615874286	-0.306138731925825
214	9.141516	0.980760498046875	9.79742614746094	-0.685574340820313	-0.44255784460393	-0.178578850381358	-0.878778782388376	-0.864573361910971	0.345086828503257	0.365277952616257	0.238024066122491	0.921425349656735	-0.307115400064014
215	9.141516	1.09871520996094	10.1243463134766	-0.81191162109375	-0.437353359326529	-0.179448887558311	-0.881203799265462	-0.866843887124965	0.344959582095282	0.359978557798558	0.239381942593592	0.921303958243279	-0.306423403292544
216	9.141516	1.20349731445313	10.1417102050781	-1.04183349609375	-0.431979975399151	-0.179890577725998	-0.883760533685203	-0.869090555234841	0.344865621801459	0.354611491214103	0.240987359950154	0.921252996166037	-0.305316244899211
217	9.141516	1.12685668945313	9.79443237304688	-0.927471313476563	-0.426568931616542	-0.180998643549628	-0.886159374837685	-0.871223508931478	0.345373190098927	0.348836576416543	0.242916743071871	0.920845725729389	-0.30501574605464
218	9.141516	1.10111022949219	9.89681945800781	-0.925675048828125	-0.420601021020481	-0.18340846025958	-0.8885134314245	-0.873491076362103	0.34652038685715	0.341960467025279	0.245169575258238	0.919937475156644	-0.305952481882586
219	9.141516	1.08793762207031	10.0099841308594	-1.42084533691406	-0.413617604334864	-0.185446820711409	-0.891364097365559	-0.876215858500834	0.34702943468709	0.334389504578726	0.24731810830575	0.919336743608559	-0.306028928624854
220	9.141516	1.13164672851563	10.0572857666016	-1.11428283691406	-0.406317445188263	-0.18698181988355	-0.89439584791563	-0.878993179261658	0.347321120999175	0.326709396435671	0.249553850996466	0.918915577156527	-0.30547837486788
221	9.141516	1.13164672851563	10.0213604736328	-1.00351318359375	-0.398859035115054	-0.189057212302639	-0.897312008491719	-0.881811049380523	0.34758832075908	0.31873442308967	0.251636132734371	0.918389748281326	-0.305351481008775
222	9.141516	0.984951782226563	10.1381176757813	-1.15020812988281	-0.390957443088158	-0.190932801733339	-0.900387107257888	-0.884877565479299	0.347152563643364	0.310607133960683	0.253266602230532	0.918166522357518	-0.304674031411448
223	9.141516	0.996328125	10.0405206298828	-1.13583801269531	-0.383409261325232	-0.192172388602977	-0.903364329265146	-0.887745483832881	0.34649047907326	0.303071450067317	0.254765174747971	0.91815800435993	-0.303447828737374
224	9.141516	0.909508666992188	9.84173400878906	-1.26157653808594	-0.375939404019532	-0.193813568422796	-0.906148919990893	-0.890414853289682	0.346318435264411	0.295338670744492	0.256575434417547	0.9178779015159	-0.302769226247013
225	9.141516	0.990939331054688	10.1135687255859	-1.27355163574219	-0.368336491025016	-0.195556469586579	-0.908892676052686	-0.893139510479352	0.345868575556048	0.287535638249478	0.258127960903275	0.917677827805414	-0.302055226993763
226	9.141516	0.931063842773438	9.94052856445312	-1.27115661621094	-0.361511393504998	-0.197257380360117	-0.911262332294899	-0.895483434301475	0.345640201837653	0.280432290874755	0.259651557395119	0.917399791130939	-0.301593587423868
227	9.141516	0.938248901367188	9.99920654296875	-1.274150390625	-0.354540313484117	-0.198877019317442	-0.913646045961998	-0.897821691494492	0.345345050505967	0.273227023504267	0.261184563855818	0.917161232978391	-0.300994844349542
228	9.141516	1.04063598632813	10.0842297363281	-1.07296875	-0.347035807966078	-0.200584635492215	-0.916150616434758	-0.900262516946165	0.345037699105611	0.265473890952881	0.262856517079352	0.916905006094067	-0.300319265496823
229	9.141516	1.07716003417969	9.83933898925781	-1.33342712402344	-0.339005688433708	-0.202459010309361	-0.918741254300764	-0.90284899563607	0.344531973552001	0.257218604069189	0.26445951351488	0.916683188645301	-0.2995882129967
230	9.141516	1.12206665039063	9.88903564453125	-1.44599304199219	-0.331203378564119	-0.20426178293257	-0.921184805595989	-0.905199653977576	0.344325063378938	0.249106076136187	0.266304165319639	0.916360941312045	-0.298939319546814
231	9.141516	1.02866088867188	9.99741027832031	-1.68250122070313	-0.323943857945186	-0.205948393192925	-0.923388128709072	-0.907378862032324	0.343923254086784	0.241620355175806	0.267813326099569	0.916134299455931	-0.298285044418717
232	9.141516	1.08913513183594	9.96507751464844	-1.57771911621094	-0.316546925482287	-0.207576244620652	-0.925586379889472	-0.909489241020486	0.343633720395257	0.233976893464491	0.269494646395231	0.915875520404657	-0.297564558857078
233	9.141516	0.781973876953125	9.64174987792969	-1.48131958007813	-0.308483262883468	-0.209305781924752	-0.927916572852128	-0.911752619594984	0.343169927598285	0.225702373611518	0.271192251331882	0.915655770715751	-0.296697273955271
234	9.141516	0.964594116210938	9.78724731445313	-1.33761840820313	-0.29972237795702	-0.210240147649997	-0.930572714229198	-0.914189202075304	0.342217360869378	0.217129870650071	0.272808722295874	0.91579820825098	-0.29476947400229
235	9.141516	1.22325622558594	10.1195562744141	-1.68070495605469	-0.290175443895698	-0.211400241430785	-0.933331746852608	-0.916707231105315	0.341337333668712	0.207693709782367	0.274674469507382	0.915859575790383	-0.292839842292503
236	9.141516	1.26037902832031	10.2908001708984	-1.48431335449219	-0.280779138660296	-0.212003132710976	-0.936065033538757	-0.919031806276482	0.34052920317613	0.198545714726903	0.276665166483547	0.916021033331092	-0.290451118348112
237	9.141516	0.699345703125	10.2333197021484	-1.41545654296875	-0.272918830459287	-0.213288276290543	-0.938095636477297	-0.920944740626515	0.339869555786339	0.190655369087678	0.278165592216393	0.915967682970642	-0.289183517960995
238	9.141516	0.619112548828125	9.98783020019531	-0.963396606445313	-0.265007858176533	-0.21382098171762	-0.940240087893512	-0.922855437033504	0.338869030089058	0.183045411808659	0.279479296983492	0.916214149761842	-0.287128811396207
239	9.141516	0.848435668945313	9.92436218261719	-0.733474731445312	-0.259120707982236	-0.215075748928485	-0.941593798257846	-0.924215139958391	0.338346205551428	0.177054286196755	0.280504605606534	0.91611367603142	-0.286448771723185
240	9.141516	0.69216064453125	10.0710571289063	-1.00051940917969	-0.253061512271365	-0.216641855394518	-0.942881847050918	-0.925702120201242	0.337434461955792	0.1709197722311	0.281132452167756	0.916080940952178	-0.285937500098042
241	9.141516	0.8861572265625	9.79682739257813	-1.025068359375	-0.244934165617922	-0.218940245060978	-0.944495856849405	-0.927503445976184	0.336651945807683	0.162489461461984	0.282390885503334	0.915822382602948	-0.285525395206983
242	9.141516	1.2645703125	9.838740234375	-1.14541809082031	-0.235983275222301	-0.220738706188409	-0.946354224064976	-0.929428765630514	0.335562693780151	0.153492176222598	0.283679508308048	0.915790424787941	-0.284348086740227
243	9.141516	1.25439147949219	9.96507751464844	-1.06937622070312	-0.226527851856868	-0.223054024296837	-0.948120263773589	-0.931356294589906	0.334497687332429	0.143828890342022	0.285062422744341	0.915619025257909	-0.283515812124974
244	9.141516	0.264050903320313	10.1997894287109	-2.16869018554687	-0.216507714633946	-0.226509694294182	-0.949640862586874	-0.933420588607357	0.333076749088195	0.133363728130011	0.286095114023084	0.91528860891393	-0.283542497916137
245	9.141516	0.811312866210938	9.89921447753906	-1.73219787597656	-0.207146212959391	-0.229758519757977	-0.950947668936207	-0.934950982062617	0.332666843374617	0.12328597835649	0.288022755345357	0.914627680489603	-0.28372363046718
246	9.141516	0.746048583984375	9.95549743652344	-1.89026916503906	-0.199541003530683	-0.232428631110363	-0.951924534482714	-0.936118274657244	0.332321938379751	0.11508564256357	0.28959620812903	0.914078257432966	-0.283892542215535
247	9.141516	0.5748046875	10.1536853027344	-1.17954711914063	-0.194490089539029	-0.234232448373605	-0.952527566635217	-0.93699054817403	0.33166492914705	0.109759224698488	0.290210815965966	0.91385640825175	-0.283979131968494
248	9.141516	0.407752075195313	10.1171612548828	-1.21307739257813	-0.190288034949122	-0.236332360237613	-0.95285753355878	-0.937668270904372	0.331260459574861	0.105093870713081	0.29080694196392	0.913462382053455	-0.284636257491595
249	9.141516	0.392184448242188	9.96747253417969	-1.35019226074219	-0.18749119863177	-0.23787072867196	-0.953029153214472	-0.938185920266916	0.330756554029117	0.102016081966049	0.290953998852984	0.91324565063725	-0.285180911253897
250	9.141516	0.5748046875	10.0578845214844	-1.51544860839844	-0.187145068441091	-0.23910706039256	-0.952787771242163	-0.938475249686201	0.330095508224912	0.101494636194033	0.290242879472695	0.913161962151384	-0.286171804682489
251	9.141516	0.723894653320313	10.2734362792969	-1.38312377929688	-0.190483241004087	-0.239085613969741	-0.952131400642417	-0.938364250016623	0.329301101387136	0.105039606415671	0.288424460105794	0.91345435234495	-0.287075733900917
252	9.141516	0.701141967773438	10.5003643798828	-1.76393188476563	-0.195653650869082	-0.238003932464996	-0.951353655079328	-0.938018808488008	0.328412779183251	0.110750897928055	0.286077548619839	0.914056439504876	-0.287507324385541
253	9.141516	0.956211547851563	10.2285296630859	-1.96451477050781	-0.201354368612732	-0.237016592412656	-0.950410202576583	-0.93757201408833	0.327537714648975	0.116951972539497	0.283575627723753	0.914626798428528	-0.288171273650688
254	9.141516	1.21726867675781	10.0788409423828	-2.55368957519531	-0.211495322243434	-0.237217701938425	-0.948154781961362	-0.93644227352231	0.326999712926553	0.127071067148743	0.279902834979416	0.914767155965388	-0.291299593781868
255	9.141516	0.837059326171875	10.0441131591797	-2.48782653808594	-0.219989013154136	-0.237790392512751	-0.946076404589028	-0.935427234564881	0.326546487642378	0.13543736649362	0.276732222420464	0.914780367430926	-0.294272248839696
256	9.141516	-0.192799072265625	9.77227844238281	-1.79865966796875	-0.224094695192861	-0.237652291836504	-0.945147055103742	-0.935254440162816	0.325113581494061	0.14000104029557	0.274008576037605	0.915326470344304	-0.295121590102931
257	9.141516	0.191002807617188	9.95190490722656	-2.81115417480469	-0.223950190563329	-0.238993244528937	-0.944843130480495	-0.935772037704721	0.323649485251412	0.139934642410126	0.272354558611752	0.915496171355199	-0.296124559328283
258	9.141516	1.72022277832031	10.8093218994141	-1.76932067871094	-0.217559808727223	-0.241709271663374	-0.945644942681203	-0.936687678492927	0.324060657261482	0.132668320916443	0.274379158439751	0.914637260561376	-0.296908671154408
259	9.141516	1.56215148925781	9.79083984375	-1.025068359375	-0.210649009058692	-0.24281694178445	-0.946924985289246	-0.937680152340731	0.324046483960588	0.125498239585436	0.276374613321944	0.914348844268547	-0.295944697698605
260	9.141516	1.08075256347656	10.1159637451172	-1.52383117675781	-0.202989609731121	-0.242744001014993	-0.948615079108718	-0.93885712036412	0.323402271140119	0.118145158864024	0.278105242458317	0.914596261195423	-0.293549234583493
261	9.141516	0.973575439453125	9.87885681152344	-1.46036315917969	-0.195572073592687	-0.243099597416257	-0.950081127992084	-0.94008824988661	0.322342997337252	0.111036365632017	0.279259102726818	0.914875717135224	-0.291576363480517
262	9.141516	0.58198974609375	10.0429156494141	-1.65016845703125	-0.191355440096242	-0.244087158467052	-0.950686359751234	-0.940951949209569	0.321210693246865	0.10692576781385	0.279271417843442	0.915011010652521	-0.29113970110647
263	9.141516	0.420924682617188	10.1033898925781	-1.56694152832031	-0.188536936761884	-0.243860438560933	-0.95130747394379	-0.941727808341487	0.319668495692659	0.104693781371832	0.278572357696857	0.915611347333825	-0.289919475304354
264	9.141516	0.379011840820313	9.86927673339844	-1.32085327148438	-0.186599185272421	-0.243975041881027	-0.951660087948854	-0.942285604617835	0.318541682264769	0.103097216208454	0.277990257717191	0.915973457911899	-0.289333788236437
265	9.141516	1.0298583984375	9.98184265136719	-1.044228515625	-0.185441103220991	-0.244014466259401	-0.95187632468316	-0.942753074633967	0.317415477444087	0.102293963395426	0.277179071187534	0.916353837191225	-0.288907264637866
266	9.141516	0.7424560546875	9.70342163085938	-1.24780517578125	-0.184308384394138	-0.244632997440744	-0.951937558879352	-0.94325384783767	0.316224352547916	0.101362406221844	0.276229248960811	0.916600706643197	-0.289033815668233
267	9.141516	0.820892944335938	9.74593322753906	-1.408271484375	-0.181895624716144	-0.24627539702514	-0.951978156539967	-0.943760172204888	0.315557953286712	0.0986910101139005	0.276099110952795	0.916390531889986	-0.289823522153508
268	9.141516	0.87418212890625	10.0944085693359	-1.73998168945313	-0.181101797905871	-0.247186981329169	-0.951893237215516	-0.944165394070575	0.314577528010187	0.0979422662110461	0.275234168363625	0.916482173930499	-0.2903559495392
269	9.141516	0.993334350585938	9.98962646484375	-1.29211303710937	-0.180479442894569	-0.249017104340344	-0.951534367449971	-0.944436217657788	0.314074751554115	0.0969395750582415	0.274713307775064	0.916159119466794	-0.291864808343026
270	9.141516	0.9148974609375	9.93992980957031	-1.68669250488281	-0.180669311270771	-0.251333913986332	-0.950888985973261	-0.944475132456322	0.314116072820978	0.0964251884475189	0.274454593943258	0.915512073364321	-0.294129766238652
271	9.141516	0.9244775390625	10.0033978271484	-1.72381530761719	-0.180272965564597	-0.252142233263858	-0.950750204886257	-0.944709860737661	0.313547985564438	0.0959736410349872	0.273906803332037	0.915484546539808	-0.294725479277289
272	9.141516	0.787362670898438	10.1602716064453	-2.05372924804688	-0.180086415698488	-0.252794947328617	-0.950612222457713	-0.944890678069504	0.313071831137472	0.0957477678360373	0.273405357259554	0.91546749977995	-0.295243573119591
273	9.141516	0.917891235351563	10.1908081054688	-1.96032348632813	-0.1794672676993	-0.252407514271603	-0.950832238916928	-0.945138898629937	0.312409579421548	0.0954605519690849	0.272954139226974	0.915800579506741	-0.294627453666455
274	9.141516	0.90292236328125	9.75491455078125	-1.7675244140625	-0.179549630653662	-0.252687619608204	-0.950742287388582	-0.945212231611468	0.312163759224665	0.0955386028723141	0.272645864344578	0.915807160008844	-0.294892316502708
275	9.141516	0.74724609375	10.0063916015625	-1.89984924316406	-0.179448198505496	-0.252864090109416	-0.950714518657557	-0.945388005180691	0.311624723539204	0.0955591509986858	0.272102671272457	0.915942019787417	-0.294975172979254
276	9.141516	0.95082275390625	9.9010107421875	-1.97169982910156	-0.178536362296501	-0.253445303770515	-0.950731426499936	-0.945580151181123	0.311342931711884	0.0945714363078728	0.272034823194048	0.915877206218017	-0.295238883110037
277	9.141516	0.90292236328125	10.0075891113281	-1.82201110839844	-0.177529014670253	-0.254321657431654	-0.950686038348847	-0.945767689184457	0.311133431956608	0.0933780788707675	0.272042142038511	0.915705455962844	-0.295764417864927
278	9.141516	0.839454345703125	9.95789245605469	-1.92320068359375	-0.176958467283363	-0.254890047511416	-0.950640186682822	-0.945983872170848	0.310649081296617	0.0927990403087126	0.271661948843362	0.91571186077783	-0.296093859411895
279	9.141516	0.963396606445313	9.87346801757812	-1.90942932128906	-0.176348791898901	-0.255390916724335	-0.950619052644382	-0.946238466241665	0.310039041105612	0.0922418451405622	0.271171290147797	0.915779052307387	-0.296335719673756
280	9.141516	0.861608276367188	9.87945556640625	-1.83039367675781	-0.176314366580502	-0.256207002304585	-0.950405816537028	-0.946388190207853	0.309623381571785	0.0921018730491314	0.270670717981132	0.915691724083029	-0.297062331629958
281	9.141516	1.09572143554687	10.0153729248047	-1.89565795898438	-0.175391458637346	-0.257018067210424	-0.950357590259836	-0.946559120201867	0.309424058555266	0.0910087026050498	0.270672621814123	0.915531793612109	-0.297553132542179
282	9.141516	0.978964233398438	9.9393310546875	-1.76632690429688	-0.174786555084792	-0.257510787468516	-0.950335653597683	-0.946815749805117	0.308797764119076	0.0904647820758664	0.270165867723081	0.915604792043163	-0.297788966728169
283	9.141516	0.905916137695313	9.94052856445312	-1.82620239257812	-0.174797376566298	-0.258237658630883	-0.950136405370502	-0.94692687757879	0.308486559803037	0.0903633274053705	0.269769096941111	0.915504972179686	-0.298454821120133
284	9.141516	1.00830322265625	9.98064514160156	-1.76692565917969	-0.174166130105786	-0.258428755106519	-0.9502003671111	-0.947187191905201	0.307823769180527	0.0898941078059885	0.269263036109146	0.915674126347135	-0.29839288148965
285	9.141516	0.937650146484375	9.88125183105469	-1.79865966796875	-0.173911581036059	-0.259042901673715	-0.950079753007084	-0.947330692923352	0.30747528048576	0.089574048337477	0.268922517143693	0.915617675114819	-0.29887280369822
286	9.141516	1.01309326171875	9.98842895507813	-1.67771118164063	-0.173533259461698	-0.259716474664681	-0.949965031276599	-0.947480664606014	0.307148949006481	0.0891061912661556	0.268638415083073	0.915536386995058	-0.299376896285752
287	9.141516	0.97477294921875	9.98842895507813	-1.83997375488281	-0.173082509637396	-0.260243193852682	-0.949903113433668	-0.947650983824622	0.306761230512186	0.0886293422680966	0.268328264843357	0.915516808970761	-0.29971472232466
288	9.141516	1.03584594726562	10.0004040527344	-1.81901733398438	-0.172363392615139	-0.260331016710808	-0.950009801330764	-0.947925789835686	0.306059279761488	0.0881159136380664	0.267820010175848	0.915726749096146	-0.299527900435355
289	9.141516	0.940045166015625	9.99381774902344	-1.79327087402344	-0.172700979823776	-0.260245403139184	-0.949971947855741	-0.948080631360587	0.305413472154421	0.0886889365450473	0.267053342998769	0.915966670338776	-0.299478832009338
290	9.141516	1.01668579101563	10.0471069335938	-1.69507507324219	-0.172150254518774	-0.260196874526134	-0.950085194262048	-0.948285294935223	0.304882534007318	0.0883268920934814	0.266682000290117	0.91615731560912	-0.299226475728927
291	9.141516	0.999321899414063	9.92076965332031	-1.75195678710938	-0.171960988737104	-0.259929631980792	-0.95019261456343	-0.948537214497354	0.304051398362358	0.0884867214190687	0.26590707223795	0.916509319959282	-0.298837908173673
292	9.141516	0.932261352539063	9.9105908203125	-1.61065063476563	-0.171977465934823	-0.260005530212541	-0.950168866817647	-0.948695674786126	0.30350636339286	0.0886589195858919	0.265330487981938	0.916668430589238	-0.298862377204509
293	9.141516	1.09632019042969	9.89921447753906	-1.67232238769531	-0.171386750719437	-0.260239690896024	-0.950211494857948	-0.948903160889508	0.30300083015771	0.0881662530543252	0.264970513325039	0.916769218618339	-0.298872593026167
294	9.141516	0.9915380859375	9.99082397460938	-1.6525634765625	-0.17076294599465	-0.260613524843729	-0.95022134628925	-0.949164130214377	0.302331415067871	0.0876536900389448	0.264438027124717	0.916884020000123	-0.298992012734122
295	9.141516	0.97956298828125	9.92855346679688	-1.60226806640625	-0.17018391149594	-0.260890360716071	-0.950249259906779	-0.949403586751129	0.301710695860982	0.0871979671045922	0.263951256356232	0.917009746779455	-0.299036550574417
296	9.141516	0.868793334960938	9.89801696777344	-1.58430541992188	-0.169915549247995	-0.261624498433262	-0.950095430966436	-0.949587070862352	0.301225398550071	0.0868772359102792	0.263463661583171	0.916960130587964	-0.299618120175154
297	9.141516	0.939446411132813	9.94232482910156	-1.54778137207031	-0.16957558027198	-0.262032877227102	-0.950043627328507	-0.949782904789026	0.300688573275634	0.0865957023874988	0.262976341798919	0.917019712521792	-0.299863786577353
298	9.141516	1.03704345703125	10.0530944824219	-1.67292114257813	-0.168813314087173	-0.262470521537948	-0.95005857204201	-0.950027054371056	0.300117757594578	0.0858948632891193	0.262584578659829	0.917081543211944	-0.300017969711883
299	9.141516	0.93645263671875	9.94232482910156	-1.6429833984375	-0.168426841368552	-0.262947805800889	-0.949995184477854	-0.950269121526481	0.299436332980755	0.0855948547771989	0.261956095137914	0.91716756043568	-0.300304296180656
300	9.141516	0.9196875	9.95190490722656	-1.70884643554688	-0.168462614656476	-0.263040882602438	-0.949963073778573	-0.950459663780004	0.298765300031215	0.0858237905505215	0.261240837141335	0.917359683862872	-0.300340532450594
301	9.141516	0.9436376953125	10.0255517578125	-1.72201904296875	-0.168772264018899	-0.262782885311711	-0.949979514560807	-0.950664172011887	0.297923513740955	0.086482437599751	0.26029513047863	0.917707325429788	-0.30009950000228
302	9.141516	1.08015380859375	9.89861572265625	-1.82141235351563	-0.168229450658191	-0.261576410885012	-0.950408666416589	-0.950933549897576	0.297036979406827	0.0865702982787043	0.259661771561466	0.91833916073169	-0.29871215284313
303	9.141516	0.981359252929688	10.1812280273438	-1.64597717285156	-0.168127341359077	-0.258955100365848	-0.951144286153285	-0.951263511082756	0.295659690746725	0.0876531787789715	0.258516787791501	0.919525749102256	-0.296043015739097
304	9.141516	0.796343994140625	10.0051940917969	-0.8957373046875	-0.16805773842825	-0.255539212016252	-0.952079990167053	-0.951628655782328	0.29406249069153	0.0890514068514006	0.257214886910345	0.920992379279225	-0.292597913972898
305	9.141516	1.03165466308594	9.85969665527344	-1.03644470214844	-0.167123769257688	-0.254505613673165	-0.952521148509548	-0.951920739641951	0.293231356825816	0.0886694807338588	0.256742188174488	0.921543414052174	-0.291275101628064
306	9.141516	0.98914306640625	9.90520202636719	-1.21128112792969	-0.16700129606663	-0.254828447197899	-0.952456313754481	-0.952027246814522	0.292919782641984	0.0885557579140682	0.256426770121273	0.921553288440598	-0.291521608340602
307	9.141516	1.00890197753906	11.0320587158203	-1.02387084960938	-0.166545630045254	-0.249823014563432	-0.953861108604009	-0.952483525880199	0.290958675941938	0.0901009534962834	0.255024873374451	0.923542911990858	-0.286410201759281
308	9.141516	0.860410766601563	9.627978515625	-0.476010131835938	-0.163678208174739	-0.247519462316916	-0.95495736027482	-0.953065360988693	0.289605455266976	0.0882898519825523	0.254707404392177	0.924587906071647	-0.283304327700527
309	9.141516	0.894539794921875	10.1429077148437	-0.97956298828125	-0.164170489561998	-0.246483315474724	-0.955140840687677	-0.953327437028402	0.288388177568287	0.0894374465629476	0.253406488010532	0.92524495904135	-0.28232413570706
310	9.141516	0.884959716796875	9.64534240722656	-0.910706176757813	-0.161837617281872	-0.244745021288681	-0.955985596223568	-0.953555714138479	0.288182923089584	0.0876476062046184	0.254047408304795	0.925770207661678	-0.280016851170908
311	9.141516	0.856219482421875	10.0375268554687	-0.34248779296875	-0.162560182544279	-0.245129934975354	-0.955764354864812	-0.953581619407704	0.287881178011973	0.0883545271857598	0.253488228876512	0.925762249352078	-0.280549417207791
312	9.141516	0.738264770507813	10.2417022705078	-0.216749267578125	-0.161671111920116	-0.245235142402766	-0.955888161084344	-0.95395181820492	0.286836108850594	0.087755200432673	0.252662581547092	0.92605873009769	-0.280315622639576
313	9.141516	0.795146484375	9.53038146972656	-0.183817749023438	-0.161525835206477	-0.246396342154981	-0.955614068091034	-0.954018078564671	0.286748344578562	0.0873206313148727	0.252505267930441	0.925777634993469	-0.281383830760185
314	9.141516	0.828078002929688	10.0746496582031	-0.4167333984375	-0.161424004747986	-0.248392125695022	-0.955114465697086	-0.954118323367351	0.28659648696903	0.0867218465652456	0.252191426709548	0.92529120040651	-0.283259031179031
315	9.141516	1.01369201660156	10.3740270996094	-0.97956298828125	-0.161144688366777	-0.24781029103816	-0.955312749347959	-0.954321488686893	0.285890414793956	0.0868168587278521	0.251600647140675	0.925665560763995	-0.28256040765449
316	9.141516	1.01129699707031	9.83275268554688	-0.826880493164063	-0.160963840367451	-0.246326288383322	-0.955726949366532	-0.954570441322481	0.284898148689949	0.0873402394457657	0.250770641518432	0.926367316200402	-0.280994093938107
317	9.141516	0.965791625976563	9.88424560546875	-0.705333251953125	-0.160723042185736	-0.245551269171226	-0.95596688118311	-0.954687994256905	0.28447409707589	0.0874375303550233	0.250477418807147	0.926703330252599	-0.280146390957393
318	9.141516	1.02446960449219	10.0872235107422	-0.50055908203125	-0.159882228499574	-0.245598206494901	-0.956095807948397	-0.954899770025699	0.283977916275611	0.0867350694507663	0.250208117803713	0.926843063325313	-0.279924692999516
319	9.141516	0.953816528320312	9.87466552734375	-0.511935424804688	-0.15903950858718	-0.246381275926173	-0.956034885127807	-0.955085985695251	0.28364030111744	0.0857842614384435	0.250034386908841	0.926738607405022	-0.28042531788004
320	9.141516	0.9723779296875	10.2614611816406	-1.07236999511719	-0.157970384158288	-0.244882575764613	-0.956597032096468	-0.955385536994552	0.282749565466249	0.0853882833313706	0.249567292389276	0.927407789117352	-0.278623328624776
321	9.141516	1.06877746582031	9.81119750976563	-0.56282958984375	-0.157458804999853	-0.24499204832764	-0.956653344207945	-0.955495666550544	0.282519229331061	0.0849171140661019	0.249468947829485	0.927449072086662	-0.27857398075635
322	9.141516	0.967587890625	10.1512902832031	-0.632883911132813	-0.156361895015582	-0.244762490728882	-0.956891990205441	-0.955773580282326	0.281825327357751	0.084091308076401	0.249094000372229	0.927720759707301	-0.278004264331807
323	9.141516	1.01369201660156	9.81179626464844	-0.448467407226563	-0.155554871389777	-0.244828527555727	-0.957006621754419	-0.955947160744631	0.281447486934575	0.0833806809908144	0.248933139318953	0.927818033987865	-0.277823663419269
324	9.141516	0.968785400390625	10.2776275634766	-0.63468017578125	-0.154680574055831	-0.243939933458954	-0.957375176654273	-0.956222190616784	0.280627418093723	0.0829902065673456	0.248421098503728	0.928300361455328	-0.276668387677576
325	9.141516	1.09212890625	9.91238708496094	-0.786165161132813	-0.153626579887507	-0.24313294663887	-0.957750094863356	-0.956530949232888	0.279743031166269	0.0824158945443038	0.247885895346422	0.928778879374746	-0.275540153363706
326	9.141516	0.932860107421875	9.84532653808594	-0.4933740234375	-0.153528656430269	-0.243152584797018	-0.957760811560614	-0.956704941903753	0.279123566985613	0.0824965968398955	0.247274353283256	0.928960093254688	-0.275478745729304
327	9.141516	1.13883178710938	10.4674328613281	-0.920885009765625	-0.152283890338895	-0.24292013992395	-0.958018487484756	-0.956991203722902	0.278428038669647	0.0815209376759405	0.246936130892671	0.929229591060198	-0.274872542022399
328	9.141516	1.00351318359375	9.65851501464844	-0.823287963867188	-0.151234972281873	-0.243269849787108	-0.958095905086468	-0.957144317687709	0.278215093638804	0.0804432519835056	0.246987324122172	0.929201884337365	-0.274920206363336
329	9.141516	0.946631469726563	10.1405126953125	-0.439486083984375	-0.150768659580187	-0.244179887208282	-0.957937886280391	-0.957262602048872	0.27799284470307	0.0798015602135502	0.246813942083942	0.929029687887769	-0.275656882765765
330	9.141516	0.879570922851563	9.92076965332031	-0.06945556640625	-0.149421843457569	-0.244964011959512	-0.95794871759528	-0.957492824273303	0.277609461431768	0.0783612046149008	0.246739952506432	0.928937898768407	-0.27603220114483
331	9.141516	0.992735595703125	9.80940124511719	-0.596958618164062	-0.149061450476186	-0.245818373495533	-0.957785994486214	-0.957664604050793	0.277142648959723	0.0779131457189685	0.246290864893875	0.928851591687068	-0.276722840564758
332	9.141516	1.26217529296875	10.55724609375	-1.2502001953125	-0.148181086940149	-0.244797544971418	-0.958183973696702	-0.958006247331421	0.276038873709344	0.0776309878543701	0.245492149665125	0.929449677054785	-0.275421317757998
333	9.141516	1.03764221191406	10.1027911376953	-0.507145385742187	-0.14745799335216	-0.244440571919934	-0.958386637529974	-0.958309668164292	0.275080927594025	0.0772855948858269	0.244742150230399	0.929827559321333	-0.274812644954947
334	9.141516	1.05440734863281	10.0345330810547	-0.569415893554688	-0.14617537780613	-0.243488145299401	-0.958825470052759	-0.958664767625021	0.274044920795804	0.0765587663203012	0.244120097979867	0.93038320303232	-0.273482126066075
335	9.141516	0.986149291992188	9.99082397460938	-0.608933715820313	-0.145460199673137	-0.24250644340607	-0.959182962326578	-0.958872704153332	0.273390822660863	0.0762928261010993	0.243730317237571	0.930831930582184	-0.272300292816437
336	9.141516	0.975970458984375	9.896220703125	-0.262853393554688	-0.145224844309712	-0.241859578976393	-0.959381930543088	-0.959039493517031	0.272773185959677	0.0764070605114733	0.243213886260255	0.931181364224376	-0.27156633158662
337	9.141516	1.00530944824219	10.0680633544922	-0.2155517578125	-0.145145330633768	-0.242287287905028	-0.959286038215318	-0.959194475838681	0.272237436153383	0.0763723502138823	0.242649521977219	0.931226958628378	-0.271914620805811
338	9.141516	1.04542602539063	9.7285693359375	-0.484991455078125	-0.14536108553215	-0.243636770208291	-0.958911507395436	-0.959224387284319	0.272164076733463	0.0762580499019318	0.242402000098883	0.930896256055579	-0.27326439725981
339	9.141516	1.0011181640625	9.64833618164062	-0.346679077148438	-0.145880591189733	-0.247589064211238	-0.957819663818371	-0.959081538443766	0.272867198794954	0.0755386949724084	0.242655013816887	0.92964678620689	-0.27726412888206
340	9.141516	1.12865295410156	10.1207537841797	-0.423319702148438	-0.14576443239044	-0.250689346259316	-0.957030606575343	-0.958997917411149	0.273464745777344	0.0744313591036133	0.243054982773387	0.92863980341627	-0.280271994426877
341	9.141516	1.22026245117188	10.0177679443359	-1.07835754394531	-0.144656968695566	-0.253746432484092	-0.95639275896956	-0.958999814263374	0.274016007504047	0.0723504241477288	0.243708263402422	0.927646471255692	-0.282981106641835
342	9.141516	1.25558898925781	10.1914068603516	-2.0070263671875	-0.144004689086698	-0.251838311885622	-0.956995357453548	-0.959190480907438	0.273333125134678	0.0724059668858119	0.243343935321187	0.928367635891467	-0.280922163190602
343	9.141516	1.04063598632813	10.0692608642578	-1.34001342773438	-0.144309755600115	-0.248494947570301	-0.957823029306912	-0.959339188597168	0.272420050786796	0.0738622850380823	0.24257579364059	0.929536216056886	-0.277703812322202
344	9.141516	1.12027038574219	9.7477294921875	-0.22273681640625	-0.143448434581142	-0.251675902031288	-0.957121615549956	-0.959462742157597	0.272440954731244	0.0721607413802906	0.242598007056209	0.928673875223087	-0.280554879569915
345	9.141516	1.16697326660156	10.1177600097656	-1.50227600097656	-0.141840916651632	-0.253418828320769	-0.956901275898383	-0.959852715153298	0.271534978452878	0.0703670426367147	0.241999833835205	0.928465213634374	-0.281759520681395
346	9.141516	1.00710571289063	9.93394226074219	-1.86452270507813	-0.143646463442608	-0.253161747253112	-0.956699965123958	-0.959931250966233	0.27069481197695	0.0725004288757482	0.240619381926801	0.928780624526866	-0.281902225150228
347	9.141516	0.938248901367188	10.0806372070313	-0.92687255859375	-0.145481999950583	-0.254015642605699	-0.956196131032746	-0.95999019855194	0.269986815948878	0.0743366524535106	0.239277676298032	0.928753558553291	-0.283130749124876
348	9.141516	0.996328125	9.66749633789063	-1.27355163574219	-0.147713183014646	-0.254426458344736	-0.955744732058637	-0.960033147794417	0.269165521390168	0.0767220778570512	0.237733402574451	0.928879485933947	-0.284017129609221
349	9.141516	1.01249450683594	10.0800384521484	-1.49688720703125	-0.150334556132028	-0.251881849445311	-0.956009966032047	-0.960172908621	0.267560503051797	0.0804944889850165	0.235515406678364	0.930035973028291	-0.282073717475495
350	9.141516	1.00471069335938	9.97166381835938	-0.795745239257812	-0.15412406452451	-0.247994229013569	-0.956422832804827	-0.960238478549772	0.265651254197548	0.085857297043923	0.232782810892177	0.931626681412268	-0.279076852200073
351	9.141516	0.870589599609375	10.4680316162109	-0.905916137695313	-0.159081326412423	-0.243711385214297	-0.956712021615592	-0.960278318584814	0.263224040730617	0.0926210302111211	0.229256804572486	0.933444087826569	-0.275904788756625
352	9.141516	0.889749755859375	9.48128356933594	-0.528101806640625	-0.161804092924161	-0.241531241669602	-0.956808285295717	-0.960436647066883	0.261257545626367	0.0964673096142381	0.226673515179679	0.934562546944198	-0.274247996100721
353	9.141516	0.917891235351563	9.90520202636719	-0.83107177734375	-0.167216032367523	-0.241476507802475	-0.955891152118684	-0.960073149044664	0.260428963359157	0.102158227897406	0.224272929714504	0.934807922101218	-0.275383009232736
354	9.141516	0.901724853515625	10.4351000976563	-0.68258056640625	-0.172687334233387	-0.239645646065976	-0.955379007994726	-0.959771643073095	0.25896130173845	0.108523902227572	0.221398910900976	0.935686383636926	-0.274724432346876
355	9.141516	0.875978393554688	9.77587097167969	-0.189805297851562	-0.178000279974568	-0.236702150980071	-0.955137682248158	-0.959350379895366	0.257766419861835	0.114905706499851	0.219003992939839	0.936764946244799	-0.27296279336823
356	9.141516	0.927471313476563	10.3979772949219	-0.52929931640625	-0.182559590084684	-0.23260105707558	-0.955284640468712	-0.959062508653075	0.256076303069663	0.120929861912783	0.216497345397542	0.938254589785468	-0.269828138233061
357	9.141516	0.869990844726563	10.1680554199219	-0.065863037109375	-0.187608903309653	-0.23113789064093	-0.954661288054046	-0.958669758292325	0.254744029114212	0.126719273066066	0.213904637478209	0.938978570117934	-0.269377153679738
358	9.141516	0.813109130859375	9.67228637695313	-0.256865844726562	-0.193441348669852	-0.231898120979938	-0.953311966834972	-0.958114555348803	0.253797042460286	0.132678408443789	0.21117988411199	0.939047561481518	-0.271279807250854
359	9.141516	0.92687255859375	9.75910583496094	-0.187410278320313	-0.199397772167438	-0.234541906252491	-0.951436084383029	-0.957398072745195	0.253590165272005	0.138133842273004	0.20887665919975	0.938446653938712	-0.275115283022929
360	9.141516	1.17415832519531	10.7763903808594	-0.565224609375	-0.203535840417091	-0.235313920470566	-0.950368623481689	-0.957121261914868	0.252193933840299	0.142538099203845	0.206136002814158	0.938629628004	-0.276554460779201
361	9.141516	0.750838623046875	9.5657080078125	-0.429307250976563	-0.208829740472013	-0.237402361320588	-0.948699245458644	-0.956459851219563	0.251839348876477	0.147517779818311	0.203898730990272	0.938198838837952	-0.279657373054378
362	9.141516	0.770597534179688	10.7518414306641	-0.940045166015625	-0.213865611332634	-0.238845178342799	-0.947214062961333	-0.955888240966338	0.251024297095723	0.152526958436465	0.20134341576421	0.938051055673408	-0.281994762147111
363	9.141516	0.810115356445313	9.58127563476562	-1.465751953125	-0.220717987731249	-0.240783353190109	-0.945149166385071	-0.954766879387786	0.251312955951965	0.158940253538224	0.199258063615948	0.937478093075893	-0.285361260662357
364	9.141516	0.834065551757812	9.69923034667969	-0.590372314453125	-0.22746043533162	-0.242803593792938	-0.943031370209912	-0.953634843470886	0.251538667990827	0.165253997905222	0.197084590156127	0.936896319422077	-0.288761062084826
365	9.141516	0.96998291015625	10.7500451660156	-1.12625793457031	-0.232731226291027	-0.241070160843173	-0.942189659177027	-0.952930190894114	0.250096094451134	0.171394267181831	0.194319910435297	0.937729769758504	-0.287928205143369
366	9.141516	1.18912719726562	9.20046752929688	-0.887953491210938	-0.238342954610116	-0.239662457943993	-0.941145335344103	-0.951999008696512	0.249307344532267	0.177605561295611	0.192069059008939	0.938300460521316	-0.287579071486273
367	9.141516	0.922681274414063	10.0405206298828	-0.196990356445313	-0.243860433915792	-0.238417078321686	-0.940047544294943	-0.951197724033707	0.247792258901463	0.183907276151889	0.189089869013384	0.939018792779496	-0.287208510047038
368	9.141516	1.0394384765625	10.0471069335938	-0.56282958984375	-0.248642258515808	-0.236454777331321	-0.939290245641545	-0.95046986530223	0.246289165173032	0.189601377291232	0.186504859005118	0.939909987922017	-0.285981034636765
369	9.141516	0.961600341796875	9.95729370117188	-0.653241577148438	-0.254231385743114	-0.235144795253846	-0.938122234982288	-0.949518409653227	0.245023789146935	0.195903375370833	0.183796605607239	0.940569119212993	-0.285567049482519
370	9.141516	0.882564697265625	10.2141595458984	-0.978964233398438	-0.260014314524221	-0.232842998002549	-0.937110822967959	-0.94857253820198	0.243068998997119	0.20279941197053	0.180562166611815	0.941648342008695	-0.28406989277416
371	9.141516	1.05500610351563	9.55014038085938	-0.818497924804688	-0.266538022582436	-0.231163224790967	-0.935692816057752	-0.947247811313005	0.242103524200695	0.210017779086261	0.177986141259837	0.942310695616815	-0.283498653339992
372	9.141516	0.86220703125	10.068662109375	-0.381406860351563	-0.272899999001069	-0.229172368826683	-0.934347695406578	-0.945966214537398	0.240730355858456	0.217248283588263	0.1751385494373	0.943148408859724	-0.282484632088845
373	9.141516	0.808917846679688	9.89562194824219	-0.484991455078125	-0.278913760931971	-0.227508886959517	-0.932977395394564	-0.944696300101233	0.23951670266149	0.224010378601549	0.172499317499592	0.943859870690883	-0.281731308096146
374	9.141516	0.7328759765625	9.97465759277344	-0.756227416992188	-0.285966751401914	-0.226165719397905	-0.931167055077586	-0.943108372588628	0.238435828752285	0.231721714822849	0.169616080151222	0.944456151939538	-0.281483502922808
375	9.141516	0.761017456054688	9.7860498046875	-0.863404541015625	-0.293468954810289	-0.22525859771304	-0.929050341326513	-0.941360431459681	0.237341640664145	0.239811350208649	0.166482763806347	0.944948416456267	-0.281701933951816
376	9.141516	0.68258056640625	9.98244140625	-0.429906005859375	-0.300907635255951	-0.224450189010039	-0.926863910020252	-0.939579791550109	0.236131784426092	0.247853980590191	0.163231156202868	0.945443754560316	-0.281942718663858
377	9.141516	0.595162353515625	10.1650616455078	-0.603544921875	-0.309019764223029	-0.224591948475558	-0.924156502979607	-0.937515140571704	0.235323022252544	0.256297554410391	0.159912934180953	0.945611723636018	-0.283277816999067
378	9.141516	0.564027099609375	9.95908996582031	-1.01788330078125	-0.318364341204088	-0.224793847896232	-0.92092989537624	-0.935005992667593	0.234566946820939	0.265973948225747	0.156230406532712	0.945751591807864	-0.284861346390687
379	9.141516	0.74485107421875	9.70402038574219	-0.813109130859375	-0.327872901783264	-0.223641433867972	-0.917869200558391	-0.932349701752121	0.233324070020216	0.276195423553565	0.152392237069194	0.946332070367838	-0.28501266405963
380	9.141516	0.861009521484375	9.74892700195313	-0.58677978515625	-0.336665500107686	-0.222607884414787	-0.914932823126165	-0.929774677456572	0.232252035559461	0.285618698860937	0.148914036268479	0.946839332608685	-0.285166421633702
381	9.141516	1.05201232910156	10.0908160400391	-0.574205932617188	-0.343565805990581	-0.220396368225713	-0.912900858706442	-0.927776212312815	0.230341838506618	0.293553976808148	0.145581031801981	0.94782280955161	-0.283616087119831
382	9.141516	1.00471069335938	9.781259765625	-0.353864135742188	-0.349276727701639	-0.219039116653387	-0.911058523291308	-0.926154361839953	0.228337848214743	0.300166495661141	0.14228093874748	0.948621996607903	-0.282617129736984
383	9.141516	1.11009155273438	10.0435144042969	-0.289198608398438	-0.355193004064453	-0.218364851754695	-0.908930537159919	-0.924312091814776	0.227236514138591	0.306611682046094	0.139588992362084	0.94904181054382	-0.282550092994226
384	9.141516	0.923280029296875	10.0291442871094	-0.535885620117188	-0.360142897387658	-0.218487777903388	-0.906951037470084	-0.922807698508377	0.226029584770594	0.311988106154875	0.136832178360558	0.949301700048658	-0.283025153033846
385	9.141516	0.786763916015625	10.1129699707031	-0.405955810546875	-0.364661032725259	-0.21817902362174	-0.905218340989185	-0.921401971627656	0.224784473414455	0.317002124902115	0.1343158140072	0.949668286383857	-0.283000720748786
386	9.141516	0.968785400390625	9.89083190917969	-0.354462890625	-0.370255739523723	-0.218012297220365	-0.902984676287721	-0.91960162797071	0.223436363291402	0.323123873139595	0.131314634307687	0.950024646953863	-0.283213059368431
387	9.141516	1.07416625976562	9.93334350585937	-0.236508178710938	-0.375349923913596	-0.217942605241316	-0.900895918205142	-0.917879218244283	0.222549170489645	0.328587290426205	0.12888046916939	0.950248855582052	-0.283578802331343
388	9.141516	1.13583801269531	9.96867004394531	-0.343685302734375	-0.380004943851599	-0.218322999710865	-0.898849993294539	-0.916248837238555	0.222080448760122	0.333419169421165	0.12682393664975	0.950271193962941	-0.284429863089141
389	9.141516	1.25259521484375	10.0153729248047	-0.662821655273438	-0.385334654583804	-0.217822580695379	-0.896699797767338	-0.914409194538599	0.220700874558797	0.339333094336898	0.123988019260136	0.950707340514518	-0.284222665830437
390	9.141516	0.836460571289063	9.89442443847656	-0.647254028320313	-0.392209493607451	-0.217972410433895	-0.893677649610767	-0.911833000561389	0.220315779120775	0.346441245462516	0.121376654309634	0.950762318226824	-0.285164377208227
391	9.141516	0.872984619140625	9.90220825195312	-1.00351318359375	-0.399799685387146	-0.219537774418757	-0.889923242289805	-0.908919999816794	0.220394533349427	0.353964240570609	0.118425696102574	0.950383825237439	-0.287655938978623
392	9.141516	0.8047265625	9.95609619140625	-1.17655334472656	-0.406969506352246	-0.21918960523935	-0.886753482008628	-0.906031261154592	0.220270483484207	0.361369987569877	0.116117073292554	0.950492941089334	-0.288236004394523
393	9.141516	1.0585986328125	10.3746258544922	-0.634081420898438	-0.414747900263828	-0.218744691415178	-0.883252477610125	-0.902849741895588	0.219835235254712	0.369506174372737	0.113342502115562	0.950696181394552	-0.28866979041112
394	9.141516	1.52023864746094	10.3357067871094	-1.13763427734375	-0.420652301814978	-0.217641146649484	-0.880729227551158	-0.900412347423979	0.218878338574155	0.375965261040775	0.11094703954681	0.951170123683516	-0.288038452689364
395	9.141516	1.30588439941406	9.95908996582031	-1.2406201171875	-0.424707969747922	-0.215168953088888	-0.879389255142016	-0.898742259756154	0.217175637665067	0.380916123225539	0.109020598792158	0.952122399710985	-0.285617655279914
396	9.141516	1.1927197265625	9.61779968261719	-0.9723779296875	-0.429997567932125	-0.213026240698465	-0.87733796928341	-0.896461873379085	0.215960028522446	0.386933296135452	0.107042987393469	0.952880415820613	-0.283832189850654
397	9.141516	1.16817077636719	9.53996154785156	-0.772393798828125	-0.433419791924935	-0.212705517661276	-0.875730350464225	-0.894907903250663	0.216143847405131	0.390412194902272	0.106240899220819	0.952910384026408	-0.284032870188286
398	9.141516	1.15978820800781	9.77886474609375	-1.17116455078125	-0.436313985515085	-0.212700134974709	-0.874293290964584	-0.89363283077026	0.21594986622009	0.393428543765012	0.105121214859203	0.952955564473636	-0.284297770524602
399	9.141516	1.07656127929688	10.1279388427734	-0.9819580078125	-0.440090786109915	-0.212899203442912	-0.872349717231874	-0.891950656063546	0.215787416257341	0.397315766277645	0.103653881398468	0.95294791051681	-0.284861637839632
400	9.141516	0.992735595703125	10.0908160400391	-0.838855590820313	-0.444844297842411	-0.214718763388659	-0.869488012180696	-0.889841470493668	0.215953810675845	0.401927989874116	0.101467768610327	0.952501865774249	-0.287131481432836
401	9.141516	0.482596435546875	9.85909790039063	-0.63468017578125	-0.44647581941059	-0.216601631414677	-0.868183780054743	-0.889259808081937	0.215170024392981	0.403632077928402	0.0993797585613814	0.952252904364815	-0.288683338135503
402	9.141516	0.481997680664063	10.4482727050781	-1.03764221191406	-0.447594211276443	-0.218727105195201	-0.867074319470221	-0.889009966349957	0.213522884117516	0.405054635436488	0.0965437815825935	0.952137821647195	-0.29002218333546
403	9.141516	0.258662109375	10.5829925537109	-0.90771240234375	-0.449177192441378	-0.221023175394956	-0.865672343169638	-0.888610238485199	0.211156665551994	0.407166681657821	0.0927992125492432	0.952135294236746	-0.291250214796396
404	9.141516	0.0652642822265625	10.0932110595703	-1.18493591308594	-0.450669687127839	-0.223201041118879	-0.864336814180412	-0.888216587046294	0.208935623438799	0.409166469488976	0.0892643691510143	0.952117219937592	-0.292411819012813
405	9.141516	0.164058837890625	10.0542919921875	-1.21367614746094	-0.45165666302395	-0.223282964050487	-0.863800310668443	-0.888015807430265	0.206069093174823	0.411051644677503	0.0862217171021561	0.952722544502299	-0.291351280582428
406	9.141516	-0.01916015625	9.88723937988281	-0.696351928710938	-0.452358929924932	-0.222813232669068	-0.863554087399701	-0.887893367381704	0.203463122897263	0.412611349553636	0.0837661427830472	0.953392375136519	-0.289872752004732
407	9.141516	0.219144287109375	10.2908001708984	-0.8957373046875	-0.451637299976041	-0.221467746157513	-0.864277609730961	-0.88842874980873	0.200626034159723	0.41284809667799	0.0819640517766742	0.95430667598485	-0.287368513214474
408	9.141516	-0.028740234375	9.90520202636719	-0.865200805664063	-0.45165323004101	-0.219823145739976	-0.864689044911814	-0.88858253544478	0.197939007721995	0.413813033778009	0.080190008704639	0.955247577237971	-0.284730800379826
409	9.141516	-0.316142578125	9.81419128417969	-1.0106982421875	-0.451090889213578	-0.218951443778412	-0.865203603168557	-0.889003553112133	0.195694201376293	0.413976402831971	0.0786745970597084	0.955910061049178	-0.282924482790812
410	9.141516	-0.607736206054687	9.58726318359375	-1.04782104492188	-0.450764361997107	-0.219796729034632	-0.865159458053264	-0.88928757451234	0.194532425440472	0.413913934617096	0.0773246388371733	0.955953206677986	-0.283150784690379
411	9.141516	-0.628692626953125	9.60223205566406	-1.50167724609375	-0.450087290214186	-0.220891824129634	-0.865233051391551	-0.88965742234027	0.194483149135984	0.413141592649563	0.0770136485469811	0.955710786135028	-0.284052444458147
412	9.141516	-0.414937133789062	10.09740234375	-0.8861572265625	-0.448501785016068	-0.222005009295719	-0.865771288900832	-0.890431253207116	0.194782283051971	0.411329606910403	0.0773196750472027	0.955391876695982	-0.285040400283758
413	9.141516	0.2634521484375	10.4027673339844	-1.35797607421875	-0.44582917574576	-0.221931147516921	-0.867169482751601	-0.891652454558532	0.195274956139643	0.408440438478372	0.0786908275061365	0.955308461841767	-0.284944725165981
414	9.141516	0.4071533203125	9.82017883300781	-1.38791381835938	-0.443250415177121	-0.22126537435046	-0.868660292380664	-0.892774214871178	0.196014247430952	0.405626202389873	0.0805187599659955	0.955311493135945	-0.284423417418309
415	9.141516	0.3496728515625	10.1608703613281	-1.408271484375	-0.439770410031178	-0.221785499754161	-0.87029488023302	-0.894325115024638	0.197014942288963	0.401705988443095	0.0823685322023972	0.954984976119349	-0.284989684531123
416	9.141516	0.201780395507813	10.2387084960938	-1.81243103027344	-0.435387350520372	-0.222081666680988	-0.872420534106715	-0.896331081027077	0.197186925705528	0.397124551640457	0.0838358407346247	0.954880646811421	-0.284911393512652
417	9.141516	0.302371215820313	9.92436218261719	-1.5759228515625	-0.431370558286915	-0.221690549474865	-0.874512859663463	-0.898186377719347	0.196579003186028	0.393214860331838	0.0847388477773586	0.95509685151817	-0.283917825959282
418	9.141516	0.774190063476562	9.86807922363281	-1.64956970214844	-0.427746594525054	-0.221437448328335	-0.876355126275904	-0.899857820897853	0.195894018826832	0.389719688438807	0.085374194234479	0.955296283812362	-0.283055219158921
419	9.141516	1.08075256347656	9.96268249511719	-1.59029296875	-0.422601662307754	-0.220540306260585	-0.879073266758357	-0.902137145761508	0.195390796006458	0.384669997625551	0.0869275862543157	0.955606828225107	-0.281530077607257
420	9.141516	1.159189453125	9.82017883300781	-1.72561157226563	-0.417576437392587	-0.22025025536181	-0.881543954631629	-0.904352369639223	0.194898476147433	0.379685890603443	0.0881856590520013	0.955774245838664	-0.280568851672986
421	9.141516	1.34899475097656	9.80161743164063	-1.62202697753906	-0.411538860266779	-0.219322698378597	-0.884609134288275	-0.906881893832159	0.194988743949919	0.373556716406264	0.0905593569418259	0.955969112319412	-0.279145229515962
422	9.141516	1.66872985839844	9.91478210449219	-1.88308410644531	-0.405551641690072	-0.219539742546766	-0.887316272455874	-0.909282471545338	0.196138358150181	0.367062843941678	0.0934518745819936	0.955684072225048	-0.279167872851552
423	9.141516	1.84955383300781	10.2417022705078	-1.49509094238281	-0.39830059180226	-0.219055276461563	-0.89071399698462	-0.912132972923479	0.197067242228572	0.359413329950631	0.0967991646438411	0.955604148115094	-0.27829953975794
424	9.141516	1.97409484863281	9.98842895507813	-1.39988891601563	-0.390223835121248	-0.21935527145932	-0.894208378056409	-0.915217450112797	0.198434401525051	0.350714709272972	0.10051058408096	0.955252350520219	-0.278191605396894
425	9.141516	1.58430541992188	9.8531103515625	-1.68010620117188	-0.383018145662681	-0.218783844379281	-0.897457926329555	-0.917941588344838	0.198840806596822	0.343286431451757	0.10334573276182	0.955298886773427	-0.276990426638493
426	9.141516	1.53700378417969	9.60043579101563	-1.26756408691406	-0.376184190019165	-0.217906121187923	-0.900556704227146	-0.920360408174101	0.199993099588114	0.336064694936468	0.106874572491434	0.955258960945132	-0.275786408818129
427	9.141516	1.65376098632813	9.75251953125	-1.41725280761719	-0.369442227170828	-0.216731093282633	-0.903626069780843	-0.922713142935346	0.200730302901389	0.329101506151966	0.110058605467423	0.955371644283852	-0.274138878419196
428	9.141516	1.59927429199219	9.72916809082031	-1.10350524902344	-0.364456547236013	-0.215277992388296	-0.905994928887612	-0.92451427822741	0.200198259126086	0.324336255137375	0.11155614967565	0.95581171944905	-0.271991144034865
429	9.141516	1.44419677734375	9.723779296875	-0.610131225585938	-0.363085353896126	-0.21338337658591	-0.90699314241229	-0.925093428101429	0.198756126125935	0.323570937525232	0.111225784194452	0.956537263740524	-0.269564997739175
430	9.141516	1.465751953125	10.1530865478516	-0.959804077148438	-0.362618591431939	-0.209788498217564	-0.908017920067405	-0.925486055225088	0.19551226001344	0.324423361933665	0.109468345798324	0.957999865448872	-0.265052709980718
431	9.141516	1.59388549804688	10.0698596191406	-0.83586181640625	-0.364164157301041	-0.205701505534335	-0.908334386202642	-0.925269684777221	0.191033390401101	0.327692316333665	0.106115394592325	0.959788067425704	-0.259896880815732
432	9.141516	1.00231567382813	10.8668023681641	-1.29989685058594	-0.367686212302214	-0.20072259277149	-0.908029344258181	-0.9244468895615	0.184960286216447	0.333448108260937	0.101018798562042	0.962029174855846	-0.253564723617582
433	9.141516	0.737067260742188	9.47888854980469	-0.937051391601563	-0.372462951224834	-0.199404263901287	-0.906371496409101	-0.922968925658483	0.18162009056911	0.339326546221326	0.0969521130956511	0.962939293122705	-0.251690694159783
434	9.141516	1.02866088867188	9.65492248535156	-0.692759399414063	-0.37863108489928	-0.198378796728632	-0.904037805933189	-0.920912797921366	0.178376977402445	0.346556305031965	0.092510108488938	0.963756975041565	-0.25022864121858
435	9.141516	1.20828735351563	9.74174194335938	-0.470621337890625	-0.384505582249555	-0.197577179845357	-0.901730955010022	-0.918833058839869	0.175974162043102	0.353240575636774	0.0888890724549503	0.96436318485184	-0.249203492151525
436	9.141516	1.05141357421875	10.4626428222656	-0.5700146484375	-0.388508590297287	-0.194720280546356	-0.900635935108723	-0.917518081353986	0.1718922101035	0.358627436895499	0.084980266260558	0.965679595129608	-0.245440978437998
437	9.141516	0.788560180664063	9.79443237304688	-0.582588500976563	-0.39279317511473	-0.193179969043471	-0.899107902948057	-0.91601075025328	0.168803711078036	0.363908797017476	0.0814728605347398	0.966533396570779	-0.243259874022907
438	9.141516	0.707728271484375	10.0501007080078	-0.480800170898438	-0.39595542736128	-0.191386693676514	-0.898103798581611	-0.914901319990707	0.16591780815123	0.368003879894701	0.0785803679197786	0.967389484345299	-0.240795995306666
439	9.141516	0.844843139648437	9.95429992675781	0.063468017578125	-0.398630511903711	-0.191368456149015	-0.896923535743448	-0.913910694032209	0.164528204085858	0.37107642527362	0.0765568959202994	0.967630396407339	-0.240479640792363
440	9.141516	0.77359130859375	9.6183984375	-0.2634521484375	-0.40082161075214	-0.190880248691703	-0.8960506498036	-0.913118251302954	0.162816374241676	0.373772507571423	0.0745459287385655	0.968016300967183	-0.239556560274013
441	9.141516	0.664617919921875	10.0135766601563	-0.359851684570313	-0.402869132199288	-0.190286204456932	-0.895258411138576	-0.912353492141597	0.161351677104717	0.376266849021446	0.0728530555160529	0.968378436712048	-0.238611893276729
442	9.141516	0.363444213867188	9.95190490722656	-0.357456665039063	-0.404021214104888	-0.190500002479513	-0.894693583082229	-0.911920591398281	0.160741861502277	0.377575011017139	0.0718866714838121	0.968437815771405	-0.238663996964121
443	9.141516	0.593366088867188	10.0985998535156	-0.542471923828125	-0.404275380341886	-0.189074691597048	-0.894881097044129	-0.911883206307599	0.159190573753798	0.378321793295218	0.0709255588881471	0.968973230912711	-0.236770865756296
444	9.141516	0.492176513671875	10.1542840576172	-0.693956909179688	-0.404115321431396	-0.186311134310703	-0.895532784556913	-0.912023988387383	0.157016399170635	0.378890610859467	0.0700217936814757	0.969862882898066	-0.233372956415866
445	9.141516	0.379610595703125	9.857900390625	-0.262254638671875	-0.403175634258328	-0.184028610507869	-0.89642784341794	-0.91241857834492	0.156086272643067	0.378324481607296	0.070297552101269	0.970448631307674	-0.230841305146268
446	9.141516	0.353265380859375	9.90759704589844	0.258662109375	-0.403051718178201	-0.183996089778746	-0.896490240560226	-0.912453692279964	0.156309136016411	0.378147740231863	0.0705519093877818	0.970418926517787	-0.230888577322057
447	9.141516	0.523910522460938	9.74832824707031	0.0880169677734375	-0.402771728704065	-0.184692093592392	-0.896472958388148	-0.912580028421758	0.156488497975173	0.377768502825762	0.0705168510533675	0.970257790778272	-0.231575458871582
448	9.141516	0.629291381835938	9.65671875	-0.17962646484375	-0.402976712738165	-0.185612469830022	-0.896190705170692	-0.912476235930447	0.157115492762186	0.377758971827671	0.0706886684904006	0.96998079000447	-0.232680852605795
449	9.141516	0.633482666015625	9.9968115234375	-0.707728271484375	-0.403818497792595	-0.184305182475438	-0.896081592575826	-0.912087603717165	0.157020376405516	0.378735797804947	0.0709000986318895	0.970245433437419	-0.23151020475958
450	9.141516	0.64426025390625	10.1057849121094	0.017962646484375	-0.403681071267245	-0.185917924758831	-0.895810313600987	-0.912120114745684	0.158050234448535	0.378228792752591	0.0712635178534518	0.969770410274583	-0.233381366820528
451	9.141516	0.843046875	10.4530627441406	-0.605341186523437	-0.402201003894774	-0.186495046404247	-0.896355928263273	-0.91275424092417	0.158147945679893	0.376654912289979	0.0715125733069232	0.969643658744751	-0.233831407033175
452	9.141516	0.800535278320313	10.9057214355469	-1.619033203125	-0.392288493230144	-0.190049132230644	-0.899995036329425	-0.916916692932354	0.158765893480252	0.366138183326203	0.0733042720529831	0.968852268617769	-0.236541254949291
453	9.141516	1.02147583007813	9.08430908203125	-0.987346801757813	-0.390299202786272	-0.182622077667977	-0.902394430973857	-0.917802650406064	0.154711389504474	0.365653771845992	0.0728342447754164	0.970934376106762	-0.227994758891884
454	9.141516	0.497565307617188	10.0333355712891	0.698148193359375	-0.387962537700853	-0.179427631852358	-0.904041367564875	-0.918806116409754	0.152624846711992	0.364006835944282	0.0726662905943364	0.971859753819447	-0.224071928445452
455	9.141516	0.86220703125	9.8052099609375	1.02147583007813	-0.386869325765723	-0.180133145957078	-0.904369490036667	-0.919242821694071	0.15294363279001	0.362768355776681	0.0729709500109262	0.971679111083799	-0.224755301467846
456	9.141516	0.780177612304688	9.75311828613281	-1.05261108398437	-0.385800418357681	-0.182190375527942	-0.904414011534555	-0.919722309735547	0.153080160269643	0.361493205339369	0.0725872590042408	0.97127397349914	-0.226622942866435
457	9.141516	0.7137158203125	9.6136083984375	-1.983076171875	-0.385312813521643	-0.182925791484908	-0.904473432747284	-0.919874377698027	0.153941385993817	0.360739766220706	0.0732472865756991	0.970999590364446	-0.227584337161798
458	9.141516	0.485590209960938	9.97465759277344	0.229323120117188	-0.384413342756655	-0.185474237407711	-0.9043371545882	-0.920232532021753	0.154955265032092	0.359389694965881	0.0734742738615953	0.970354663562176	-0.230246298523231
459	9.141516	0.805924072265625	10.7314837646484	-0.950223999023438	-0.384051497589428	-0.184022427266808	-0.904787374725217	-0.920368657038777	0.154478960802433	0.359246135414202	0.0736612675695715	0.970706957290527	-0.228696350490801
460	9.141516	0.816102905273438	9.27112060546875	0.250878295898438	-0.384252008833082	-0.185408193406145	-0.904419258710035	-0.920202765547435	0.156158134613443	0.358944991987493	0.0746810818520474	0.970174437311105	-0.230617209248331
461	9.141516	0.9532177734375	10.5368884277344	-1.063388671875	-0.384690398210953	-0.184246645706284	-0.90447027097096	-0.920049889003237	0.155419525212356	0.359656743198145	0.0743067915430932	0.970514268173709	-0.229304504974983
462	9.141516	0.985550537109375	9.7381494140625	-1.31785949707031	-0.385909903988688	-0.183259186905065	-0.904151323849242	-0.919550294076874	0.155204633769922	0.361024622871458	0.0741673962504806	0.970735593285442	-0.228411044527592
463	9.141516	0.975970458984375	10.1608703613281	-0.5748046875	-0.387022007702854	-0.183157301504754	-0.903696502405066	-0.919157695799777	0.154473912347288	0.362335398017042	0.0732331605606182	0.970871368055326	-0.228135246914377
464	9.141516	1.06578369140625	10.2045794677734	-0.950223999023438	-0.388778771449555	-0.181562836385668	-0.903264082820615	-0.918466484598415	0.153627818208021	0.364441778809829	0.0725974072512494	0.971305013842838	-0.226486614492252
465	9.141516	1.14841186523438	9.83095642089844	-1.21786743164063	-0.390612675239235	-0.181354738895654	-0.902514374745653	-0.917686177680681	0.154055449353362	0.366222606918737	0.0726210522938769	0.971276159083822	-0.22660274834853
466	9.141516	1.27774291992188	10.1512902832031	-1.09811645507813	-0.391222914643013	-0.17905336749598	-0.902709545006906	-0.917487546311354	0.152456261039682	0.367387657431999	0.0718417247969259	0.97195523562464	-0.223923617602192
467	9.141516	1.10051147460938	9.6806689453125	-1.18673217773438	-0.392448799417439	-0.178176594396616	-0.902350841438647	-0.916984118227124	0.152145792269406	0.36877063984805	0.0715825869540612	0.972164985536889	-0.223094540814036
468	9.141516	0.97477294921875	10.0417181396484	-0.495170288085938	-0.393446152121316	-0.178889282015577	-0.901775332419823	-0.916574711726999	0.152453667575014	0.369660218397241	0.0713507056972757	0.971985855875937	-0.223947700978649
469	9.141516	1.01728454589844	9.96627502441406	-1.04542602539063	-0.394553939842849	-0.178025118442102	-0.901462281938719	-0.916178436093173	0.151291543692827	0.371117154069858	0.0703154449061843	0.972326038945126	-0.222795449228498
470	9.141516	0.955014038085938	9.68007019042969	-0.6083349609375	-0.396337850816633	-0.178413817072963	-0.900602474950801	-0.915470923349446	0.151047747995979	0.372957861328939	0.0694931400338585	0.972292696518285	-0.223198601665504
471	9.141516	0.949026489257813	10.1171612548828	-1.18553466796875	-0.39778030052019	-0.178058922994665	-0.900036583956479	-0.9149342452834	0.150021981068698	0.374684843573795	0.0683092916502798	0.972516542346814	-0.22258799504024
472	9.141516	1.35498229980469	10.1590740966797	-1.27594665527344	-0.399288047428828	-0.176735335383125	-0.899629744065573	-0.914356466657759	0.148728161610838	0.376606141512587	0.0672406652377295	0.972956604978288	-0.220984474041758
473	9.141516	1.23882385253906	9.94412109375	-1.06398742675781	-0.399754762962045	-0.175886311527044	-0.899588869932577	-0.914238343287887	0.147241008556976	0.377476273507813	0.0660634630592405	0.973336576327293	-0.219662304531488
474	9.141516	1.28971801757813	10.0087866210938	-1.19990478515625	-0.399854385047025	-0.17587888014505	-0.899546046780035	-0.914234933148871	0.146669613829493	0.377706912022253	0.0655054025935559	0.973424184976945	-0.219441104474585
475	9.141516	1.18553466796875	9.67947143554688	-1.25139770507813	-0.40051896658333	-0.177066544327097	-0.899017239148995	-0.913941770480144	0.147374780057268	0.378141659136748	0.0655362310378158	0.97310231377956	-0.22085490562409
476	9.141516	1.13583801269531	9.82975891113281	-0.955014038085938	-0.400541049976942	-0.180208888681462	-0.898382782406008	-0.913921273648514	0.148862248348393	0.377608178657904	0.0656869306334714	0.972298713079912	-0.224322178321939
477	9.141516	1.00770446777344	9.89023315429688	-1.66633483886719	-0.401080853780972	-0.183417251557855	-0.897492206406991	-0.913697153661605	0.150168678009627	0.377633260631954	0.0655107633981372	0.971497545017898	-0.227817602268108
478	9.141516	1.02446960449219	10.1147662353516	-1.98666870117188	-0.401945999043836	-0.187670978645976	-0.896224870011268	-0.913337078552735	0.151896443494408	0.377813249363368	0.0652287880725103	0.970415928469752	-0.232461031097214
479	9.141516	1.02925964355469	9.67049011230469	-1.78369079589844	-0.401986285013575	-0.191712029093354	-0.895351062188399	-0.913315015148174	0.153674924600362	0.377146789266414	0.0652894307363481	0.969345405647534	-0.236868686795324
480	9.141516	1.4226416015625	9.95669494628906	-2.04953796386719	-0.40092945210086	-0.196150744595672	-0.894863374953221	-0.913757317100124	0.155568578709102	0.375294528023543	0.0655983222658036	0.968154586165347	-0.241606203154882
481	9.141516	1.44898681640625	9.95968872070313	-3.14525939941406	-0.401173795800487	-0.198281477665082	-0.894284094221731	-0.913694445565687	0.155874828045789	0.375320527181912	0.0649772706832287	0.967671170179544	-0.243701581238019
482	9.141516	1.21906494140625	9.92436218261719	-2.34831665039062	-0.400012385834153	-0.192591495685442	-0.896046096453142	-0.914311014541367	0.151535823997672	0.375595876885894	0.0634465118631851	0.969507818346501	-0.236704732308849
483	9.141516	1.12266540527344	9.11245056152344	-2.60458374023438	-0.400426421896493	-0.192915684330898	-0.895791392784231	-0.914164469517489	0.151255461502842	0.376065297571274	0.062944446291787	0.969487144888834	-0.236923347469844
484	9.141516	1.25918151855469	9.67348388671875	-2.78480895996094	-0.400938835421982	-0.195130637095532	-0.895082166461357	-0.913935777722735	0.152392979462407	0.376161898667197	0.0630035272727172	0.968865529512359	-0.239437134283581
485	9.141516	0.941841430664063	9.33818115234375	-2.77103759765625	-0.40028546925949	-0.201024450516928	-0.894069747499644	-0.914207736408235	0.154898853249249	0.374473710630531	0.063212006700003	0.967261865037816	-0.245781868030422
486	9.141516	1.10590026855469	9.45254333496094	-3.305126953125	-0.400321334426076	-0.20688168075905	-0.892716528002947	-0.914157417160523	0.157887961505699	0.373346498928243	0.063710641605049	0.965542004149942	-0.252328342380295
487	9.141516	1.1543994140625	9.6040283203125	-3.72724914550781	-0.39971853259428	-0.212824580467675	-0.891588914606633	-0.91436817333731	0.160984137625048	0.371503635272808	0.0644665672148497	0.963737415161349	-0.258948366145947
488	9.141516	1.25738525390625	9.76150085449219	-4.1625439453125	-0.399077330493274	-0.218755887442136	-0.890439860965223	-0.914603755782432	0.163913088871321	0.369638295101215	0.065094194787495	0.961913905194257	-0.26548895419377
489	9.141516	1.04303100585938	9.34835998535156	-4.55113586425781	-0.397931745441017	-0.226948970100447	-0.888900720519796	-0.915055904817402	0.167627567221972	0.366842867950365	0.065749654212562	0.959372275854159	-0.274375325591313
490	9.141516	0.953816528320312	8.75379638671875	-4.63975158691406	-0.397267076451151	-0.234888835595319	-0.887133645445054	-0.915198058632032	0.172780847277186	0.364086929579102	0.0677597479637851	0.956542740146436	-0.283609948395735
491	9.141516	1.82560363769531	8.5981201171875	-4.86368591308594	-0.395404971198349	-0.243751161587571	-0.885573418738583	-0.915869351193973	0.17764385664189	0.360036097830378	0.0695574603846543	0.953429615347722	-0.293485482235036
492	9.141516	1.47952331542969	8.6556005859375	-5.82588500976563	-0.394564454943115	-0.253983345435408	-0.88306927878671	-0.916067618551974	0.183705690660271	0.356472071079274	0.0716868825933778	0.949602379662389	-0.305149654110196
493	9.141516	1.484912109375	8.0328955078125	-6.57073608398438	-0.394501051160099	-0.263768898861746	-0.88022433994229	-0.915888493493653	0.190302853229318	0.353458755074347	0.074277776753907	0.945627195064759	-0.316657575046696
494	9.141516	1.6046630859375	7.11440551757813	-7.26110046386719	-0.394732139306936	-0.275215504876134	-0.876608786217629	-0.915535234977486	0.198130449454251	0.350056507600955	0.0773419143342703	0.940744785196725	-0.33017794810114
495	9.141516	1.456171875	7.12997314453125	-7.3910302734375	-0.394552965895601	-0.285787462678988	-0.873300339676157	-0.915257709069869	0.206457798738515	0.345945809814517	0.0814326905558183	0.935788813523411	-0.34302771519702
496	9.141516	1.62561950683594	6.84017578125	-8.90588012695313	-0.394704907078969	-0.295551449880328	-0.86997550356399	-0.914842772460158	0.21428740851916	0.342262484399845	0.0852686226298616	0.930983483754561	-0.354963399480887
497	9.141516	2.04414916992188	6.90304504394531	-8.13947387695313	-0.394706880904565	-0.305079158365931	-0.866679401680532	-0.91453225315999	0.221332848255504	0.338589025535706	0.0885281655559542	0.926249684163963	-0.366366328269201
498	9.141516	2.06390808105469	6.91502014160156	-9.120234375	-0.393607795660181	-0.313768889399836	-0.864072906206604	-0.914629801832545	0.22807526161543	0.333817316265669	0.092332165550763	0.921699928981145	-0.376754578102058
499	9.141516	1.94774963378906	5.83067504882812	-9.15316589355469	-0.392710678308616	-0.321946382946591	-0.861469006784338	-0.914456558401062	0.236222360208522	0.328585147769647	0.0977114422146789	0.916814879375942	-0.387173024648161
500	9.141516	2.49860412597656	5.10438537597656	-9.7668896484375	-0.393157956464359	-0.323749843754334	-0.860588670584161	-0.913753412624739	0.241787237237984	0.326486803447652	0.102379305454825	0.914726719068524	-0.390888100658898
501	9.141516	2.25730590820313	5.02055969238281	-10.0345330810547	-0.391523442510899	-0.326476765777204	-0.860303618132617	-0.913890995574111	0.246985036582142	0.3221826188873	0.107296981192278	0.912365778135159	-0.395064608279265
502	9.141516	2.13575866699219	4.97265930175781	-9.73695190429688	-0.391363855375407	-0.331526551422994	-0.858443054842472	-0.913394489801165	0.253484640483967	0.318521652387375	0.112003744163162	0.908755018000061	-0.4020192514708
503	9.141516	2.07528442382812	4.69184326171875	-9.84951782226562	-0.389436259671359	-0.333524168513378	-0.858545880352728	-0.913690740856331	0.25751709817505	0.314410836678559	0.116226630883766	0.906888401714876	-0.405024440137194
504	9.141516	2.26149719238281	4.48048278808594	-9.96088623046875	-0.387498244804021	-0.335043847693341	-0.85883102552053	-0.91394641951529	0.261507969738566	0.310347424700763	0.120611162538901	0.905184623094126	-0.407546004255912
505	9.141516	2.24892333984375	4.531376953125	-9.90340576171875	-0.385814959345449	-0.335312120197729	-0.85948391444737	-0.914204031382394	0.264174643279127	0.307315386618577	0.124007282646821	0.904310532890583	-0.408466221312976
506	9.141516	2.36807556152344	4.39306457519531	-10.0806372070313	-0.383532234440491	-0.336036197937673	-0.860222470539266	-0.91465716164026	0.267000320052667	0.303501409802255	0.127692215131806	0.903211217139915	-0.409761144360182
507	9.141516	2.38723571777344	4.48766784667969	-9.75012451171875	-0.381379534985249	-0.337014467812689	-0.860796665176722	-0.915123035920653	0.269362003520605	0.29998990014121	0.130764977810585	0.902144866163021	-0.411138858579315
508	9.141516	2.12797485351563	4.39366333007812	-9.63935485839844	-0.37917644859058	-0.337224025873477	-0.861687401096198	-0.915630547969812	0.271179747911117	0.296786529255228	0.133588623986988	0.901521769396917	-0.411597593341744
509	9.141516	2.45968505859375	5.16545837402344	-10.0656683349609	-0.37679302542714	-0.335829846794654	-0.863275929231982	-0.916266079274963	0.271912884822621	0.294142576036738	0.135953992069194	0.901821322141653	-0.410164375550986
510	9.141516	2.27945983886719	5.08402770996094	-9.77407470703125	-0.374602413500798	-0.330748339836548	-0.866186219871192	-0.91694455785556	0.270619771994118	0.293219400492061	0.137425287405371	0.904085435509952	-0.404652709962916
511	9.141516	2.29143493652344	5.49716857910156	-9.2687255859375	-0.371214932348881	-0.326363381018331	-0.869302259016678	-0.918026899214863	0.269521171642596	0.290834919420528	0.139377495741453	0.90600512226294	-0.399660646191435
512	9.141516	2.46806762695312	6.15160766601563	-9.14178955078125	-0.368060353256329	-0.320313454115931	-0.872886514658777	-0.919099577545325	0.267363663596337	0.289435032337743	0.14066820151275	0.908799187114879	-0.392805924831211
513	9.141516	2.62374389648438	6.17615661621094	-8.43705505371094	-0.364922057150551	-0.314287345337307	-0.876387674928076	-0.920283092156824	0.264424097573321	0.288372895593206	0.141106068244016	0.911758389697273	-0.38572751563941
514	9.141516	2.39082824707031	6.54498962402344	-8.11791870117188	-0.362204464676566	-0.307436852282024	-0.879937786225415	-0.921281366510808	0.26148736205135	0.287862820119941	0.141592971182687	0.914935484800075	-0.377947733377661
515	9.141516	2.57464599609375	6.91921142578125	-7.83351013183594	-0.359078982332979	-0.299883760125372	-0.883816731488933	-0.9225482842897	0.257420214821633	0.287470861402187	0.141304450039067	0.918588353624328	-0.369091437160094
516	9.141516	2.42076599121094	8.13408508300781	-7.49700988769531	-0.355365926094837	-0.291655068528553	-0.888061022437289	-0.923985877239002	0.253225798370894	0.286577727156694	0.141298114756112	0.922395802267675	-0.359472984694734
517	9.141516	2.38244567871094	8.1286962890625	-7.14314575195313	-0.353349143331954	-0.283629069296476	-0.891458879565732	-0.925135083390406	0.247347211288964	0.288000754422277	0.138814481905895	0.926484704740228	-0.349795127890041
