// Start Time: Unknown
// Update Rate: 100.0Hz
// Filter Profile: human (46.1)
// Option Flags: AHS Disabled ICC Disabled 
// Firmware Version: 4.0.2
PacketCounter	SampleTimeFine	Acc_X	Acc_Y	Acc_Z	Mat[1][1]	Mat[2][1]	Mat[3][1]	Mat[1][2]	Mat[2][2]	Mat[3][2]	Mat[1][3]	Mat[2][3]	Mat[3][3]
1	9.141516	0	0	0	0	0	0	0	0	0	0	0	0	-0.510737915039063	0.777183837890625	8.66637817382813	0.819908301950783	0.572438956412905	0.00800109824267982	-0.568556306079788	0.815824638062097	-0.105706606925751	-0.0670380728324595	0.0821206497280319	0.994365172197396
2	9.141516	0	0	0	0	0	0	0	0	0	0	0	0	-0.523311767578125	0.567020874023437	9.4699072265625	0.819785361651258	0.572505870046739	0.0137473482658535	-0.568360631012044	0.816320437786285	-0.102893809182087	-0.070129551102996	0.07653738703689	0.994597342871807
3	9.141516	0	0	0	0	0	0	0	0	0	0	0	0	-0.24908203125	0.592168579101563	9.06275390625	0.81995000643322	0.572215978404896	0.0158385923708717	-0.568106903249743	0.816834799022752	-0.100177131050194	-0.0702604684737467	0.0731422255854174	0.994843546195211
4	9.141516	0	0	0	0	0	0	0	0	0	0	0	0	-0.550255737304688	0.19399658203125	9.10945678710937	0.820243090605465	0.57172492829065	0.0182175378425787	-0.567635728809164	0.817483758602477	-0.0975191458148419	-0.0706466679559901	0.0696484801859902	0.995066901024498
5	9.141516	0	0	0	0	0	0	0	0	0	0	0	0	-0.188607788085938	0.9627978515625	9.16154846191406	0.819307939284836	0.572936006562525	0.0218822532894038	-0.56881048262051	0.817018627852916	-0.0945261688759341	-0.0720356542682712	0.0649991855758619	0.995281854746995
6	9.141516	0	0	0	0	0	0	0	0	0	0	0	0	-0.0987945556640625	-0.116757202148438	8.19276306152344	0.820262705351148	0.571610513316381	0.0207488620458964	-0.567677056366561	0.817990967006784	-0.0929168314693516	-0.0700846194611409	0.0644375586245366	0.995457657137408
7	9.141516	0	0	0	0	0	0	0	0	0	0	0	0	-1.04961730957031	-0.90052734375	10.7225024414063	0.81898972700559	0.573268286301948	0.0248857183890174	-0.569781039258048	0.817605866879882	-0.0828867525338951	-0.0678630559386209	0.0537039883437372	0.996248205656928
8	9.141516	0	0	0	0	0	0	0	0	0	0	0	0	-0.29458740234375	-0.0484991455078125	9.03760620117188	0.817365548988577	0.575365622358905	0.02946115975571	-0.572375582840397	0.816811890404462	-0.0721424137522833	-0.0655724903806254	0.0421038751356676	0.996959132664846
9	9.141516	0	0	0	0	0	0	0	0	0	0	0	0	-0.705932006835937	-0.929267578125	9.89382568359375	0.814866564368256	0.578389468529664	0.0381851406786497	-0.576066746397739	0.815384235218478	-0.0574077751868203	-0.0643396143087462	0.0247824867830197	0.99762028967912
10	9.141516	0	0	0	0	0	0	0	0	0	0	0	0	0.111368408203125	-1.67591491699219	8.42028991699219	0.813081191135982	0.580572568677231	0.0428307030109844	-0.579109512778468	0.814152121724419	-0.0422906006236797	-0.059423470366334	0.00958202437630708	0.998186874276793
11	9.141516	0	0	0	0	0	0	0	0	0	0	0	0	-0.233514404296875	-2.16090637207031	9.29207702636719	0.811239407938252	0.582533998312807	0.0504456521187909	-0.581937163807491	0.812774545672477	-0.0273253597706066	-0.0569188930645095	-0.00718879103842191	0.998352924018214
12	9.141516	0	0	0	0	0	0	0	0	0	0	0	0	0.707728271484375	-2.13815368652344	8.47118408203125	0.810646027622418	0.582939491959643	0.0550869005647305	-0.583203709180738	0.812224794168256	-0.0128186323827426	-0.0522154335213688	-0.0217355113159989	0.998399276867731
13	9.141516	0	0	0	0	0	0	0	0	0	0	0	0	0.0904119873046875	-3.10813659667969	7.9323046875	0.810806448212534	0.582053090819166	0.0617017261090144	-0.583220429773056	0.812313154792422	0.00112643087422901	-0.0494654812198123	-0.0368990246353293	0.998093997651852
14	9.141516	0	0	0	0	0	0	0	0	0	0	0	0	1.14422058105469	-2.87522094726563	8.65260681152344	0.810573992792449	0.581834070528269	0.0666251947915532	-0.58388012533685	0.811700239945533	0.0150572145162614	-0.0453188861859078	-0.0511061135762625	0.997664454468535
15	9.141516	0	0	0	0	0	0	0	0	0	0	0	0	-0.19878662109375	-3.71647155761719	8.6651806640625	0.811786687381564	0.579214029496482	0.074252826373922	-0.582488847214042	0.812178951431265	0.032742842321161	-0.0413414690271721	-0.0698316467402823	0.996701772875024
16	9.141516	0	0	0	0	0	0	0	0	0	0	0	0	0.74485107421875	-3.74461303710938	7.79997985839844	0.811996572701499	0.578275283521592	0.079115500308356	-0.582686510095343	0.810991833499123	0.0526182188090786	-0.0337342092530529	-0.0888253481037524	0.995475796119785
17	9.141516	0	0	0	0	0	0	0	0	0	0	0	0	0.412542114257813	-5.19779113769531	7.43473937988281	0.812958412474494	0.575575540852761	0.0883822174365558	-0.581745575359138	0.809495231472971	0.0793067195929033	-0.0258979755389556	-0.115889028792952	0.992924482459976
18	9.141516	0	0	0	0	0	0	0	0	0	0	0	0	1.38731506347656	-6.11448486328125	6.20848937988281	0.814990134807824	0.571731135631788	0.0944170996965659	-0.579234552745537	0.808457416332373	0.104326117932478	-0.0166857145966901	-0.139714403432039	0.990051247361483
19	9.141516	0	0	0	0	0	0	0	0	0	0	0	0	1.35677856445313	-6.22764953613281	6.20190307617188	0.816557409409858	0.568191725274339	0.101941946556025	-0.577186242569455	0.806518290479601	0.12800112698885	-0.00948886328367354	-0.163359757748446	0.986520932885842
20	9.141516	0	0	0	0	0	0	0	0	0	0	0	0	1.37653747558594	-6.99166076660156	5.26245666503906	0.816374312018686	0.56597833273088	0.114897822238675	-0.577488879475318	0.802174516143932	0.151732131506779	-0.00629100614839127	-0.190222429088742	0.98172086191199
21	9.141516	0	0	0	0	0	0	0	0	0	0	0	0	1.944755859375	-7.3527099609375	4.37929321289062	0.817220677508507	0.562650379184512	0.124799499422322	-0.576323503371919	0.798301369268138	0.174831757085875	-0.00125845685495604	-0.214801011701856	0.976657023554433
22	9.141516	0	0	0	0	0	0	0	0	0	0	0	0	1.53520751953125	-8.15683776855469	3.11532165527344	0.817421780628849	0.560658566201091	0.132225582618864	-0.575998997331747	0.792813721721919	0.199177201813515	0.00684014812580022	-0.238973585977146	0.971001976094199
23	9.141516	0	0	0	0	0	0	0	0	0	0	0	0	2.61416381835937	-8.33167419433594	2.99497192382813	0.819589292103106	0.555880843592853	0.138815993302023	-0.572722127256936	0.78799740019084	0.225941280519449	0.0162097877906971	-0.264682045139024	0.964199490645377
24	9.141516	0	0	0	0	0	0	0	0	0	0	0	0	2.52854187011719	-8.80229553222656	1.17715209960938	0.821998446223469	0.551263048917854	0.142925173793825	-0.568910059071768	0.783559468917579	0.24975168339084	0.0256885011855586	-0.286607064754854	0.957703759697876
25	9.141516	0	0	0	0	0	0	0	0	0	0	0	0	2.87222717285156	-9.17651733398437	1.89505920410156	0.825011051547789	0.545440863648631	0.147820935886118	-0.563981494128858	0.778116344475631	0.27651370443445	0.0357999874887363	-0.311495134347419	0.949573136821851
26	9.141516	0	0	0	0	0	0	0	0	0	0	0	0	3.15723449707031	-8.957373046875	-0.568218383789063	0.827017383805677	0.541013356480034	0.152796580437593	-0.560409096949793	0.771848448149523	0.30031919210249	0.0445408906414305	-0.333997786219283	0.941520890825842
27	9.141516	0	0	0	0	0	0	0	0	0	0	0	0	2.97341674804687	-8.91785522460938	-0.523910522460938	0.828179771121002	0.536711482584242	0.161428161013468	-0.558287773539922	0.764657137922608	0.321891632913694	0.0493257399519026	-0.356707507471082	0.932913032116052
28	9.141516	0	0	0	0	0	0	0	0	0	0	0	0	3.70689147949219	-8.98072448730469	-1.63280456542969	0.8304592492797	0.531861664731519	0.165712416175783	-0.554255831711322	0.758935926313402	0.341784629210868	0.0560170357997375	-0.375685279642199	0.925052788958757
29	9.141516	0	0	0	0	0	0	0	0	0	0	0	0	3.53864135742188	-8.81786315917969	-1.90224426269531	0.833086958867363	0.526771233996355	0.168754810299107	-0.549857905407277	0.755463818728071	0.356273353555837	0.0601864006753335	-0.389597851157778	0.919016382632535
30	9.141516	0	0	0	0	0	0	0	0	0	0	0	0	3.93860961914063	-8.97294067382813	-2.63512023925781	0.837543660620895	0.520213358279773	0.167028974794889	-0.542368152947746	0.754671079610661	0.369199604912208	0.0660106296122245	-0.399811985146219	0.91421713685078
31	9.141516	0	0	0	0	0	0	0	0	0	0	0	0	2.97581176757813	-9.52319641113281	-1.74896301269531	0.840524082525897	0.514014415272304	0.17119710157088	-0.537371827003696	0.750775264099944	0.384145834753377	0.0689259474850256	-0.414880324561109	0.907261555481858
32	9.141516	0	0	0	0	0	0	0	0	0	0	0	0	3.76916198730469	-8.81187561035156	-2.6441015625	0.844421523992784	0.5081208364519	0.169603966289486	-0.530379521215442	0.748628294065716	0.397810558934191	0.0751655060049621	-0.425874268872489	0.901654730936039
33	9.141516	0	0	0	0	0	0	0	0	0	0	0	0	3.01413208007813	-8.89929382324219	-3.53684509277344	0.848243139763467	0.502176194329042	0.168233901736288	-0.523356420089447	0.746155901674372	0.411520871825067	0.0811272666578438	-0.437116048945477	0.8957387601075
34	9.141516	0	0	0	0	0	0	0	0	0	0	0	0	3.27818298339844	-8.94958923339844	-3.57696166992188	0.852450364215796	0.494694527031211	0.169132201173296	-0.515923420926237	0.743660020480616	0.425197363207416	0.0845659522983458	-0.449718910947868	0.889157748010856
35	9.141516	0	0	0	0	0	0	0	0	0	0	0	0	3.26920166015625	-9.64055236816406	-4.43318115234375	0.855486231329931	0.489775609365891	0.168116508633692	-0.510473387948435	0.743142906337727	0.432614772004335	0.0869495727497157	-0.45591498465195	0.885765938929949
36	9.141516	0	0	0	0	0	0	0	0	0	0	0	0	3.60510314941406	-9.03521118164062	-3.36979248046875	0.858548920162334	0.484591030351568	0.167526967951118	-0.504818954371944	0.7417261304377	0.441588236633103	0.0897305688988241	-0.463695892507926	0.881438905583576
37	9.141516	0	0	0	0	0	0	0	0	0	0	0	0	3.48894470214844	-8.95677429199219	-4.33857788085938	0.862047574011605	0.479234392035344	0.164949621494628	-0.498484309293556	0.742888555453016	0.446799717507808	0.0915826049467518	-0.467387410685659	0.879296101892714
38	9.141516	0	0	0	0	0	0	0	0	0	0	0	0	2.76744506835937	-8.44543762207031	-1.21307739257813	0.862877986940122	0.477221632338314	0.16643645418753	-0.49694119035013	0.741053453802655	0.451540952672681	0.0921468012877183	-0.472333877924834	0.876589798467293
39	9.141516	0	0	0	0	0	0	0	0	0	0	0	0	3.30871948242188	-8.82085693359375	-3.5302587890625	0.867150428037377	0.47042500362355	0.163555651447382	-0.488733779030264	0.740536220251742	0.461243319442202	0.0958615062962806	-0.479902513497321	0.872068890139742
40	9.141516	0	0	0	0	0	0	0	0	0	0	0	0	3.07460632324219	-9.18968994140625	-2.61476257324219	0.869829235583234	0.465650160611128	0.162993953407841	-0.483701605725325	0.739896632884134	0.467531527563077	0.0971074535935774	-0.485513028218144	0.868819452986073
41	9.141516	0	0	0	0	0	0	0	0	0	0	0	0	3.39733520507813	-8.95916931152344	-2.99197814941406	0.87263151106462	0.46161540937962	0.159453628746305	-0.477909299281266	0.73988522404739	0.473468644048192	0.100583038120591	-0.489368030279492	0.866257457908907
42	9.141516	0	0	0	0	0	0	0	0	0	0	0	0	2.99557067871094	-8.95857055664063	-3.0799951171875	0.875379155734568	0.457281634916567	0.156859300245372	-0.472572397802227	0.741007995528954	0.477056054775134	0.101914977019523	-0.491732302101655	0.864761632202145
43	9.141516	0	0	0	0	0	0	0	0	0	0	0	0	3.09975402832031	-8.91306518554688	-2.404599609375	0.877345071618575	0.453623903808071	0.156495939885107	-0.468806434212604	0.740676346930204	0.481268195852366	0.102401916717708	-0.495604583304124	0.862490547461528
44	9.141516	0	0	0	0	0	0	0	0	0	0	0	0	3.1039453125	-9.25555297851563	-2.77582763671875	0.879974071080548	0.449402682191461	0.153892376240825	-0.463531999327172	0.741555288407307	0.48500911314625	0.103844690888276	-0.498129484646591	0.860861949850289
45	9.141516	0	0	0	0	0	0	0	0	0	0	0	0	3.10514282226563	-8.75020385742187	-2.15970886230469	0.882248563681385	0.445509171507611	0.152180977736169	-0.458977942737109	0.74201001448404	0.488631135404005	0.104769842812451	-0.500941829465256	0.859116152524825
46	9.141516	0	0	0	0	0	0	0	0	0	0	0	0	2.83031433105469	-9.31842224121094	-2.31059509277344	0.885520639974632	0.440439030910337	0.147873784795285	-0.452342901421048	0.744696068932638	0.490727688693295	0.106014601413705	-0.501439153803369	0.858673208688879
47	9.141516	0	0	0	0	0	0	0	0	0	0	0	0	2.72732849121094	-9.19268371582031	-0.39996826171875	0.887324309982122	0.436209111464637	0.149590039741903	-0.44901954527656	0.743368829442031	0.495766307219054	0.105057207627003	-0.507074348088343	0.855475650522211
48	9.141516	0	0	0	0	0	0	0	0	0	0	0	0	2.91473876953125	-8.966953125	-2.52195556640625	0.890029115810937	0.432227603602052	0.145008522829627	-0.443006256455793	0.744816516459223	0.498992799096915	0.107673718937479	-0.508357802629189	0.854387918194187
49	9.141516	0	0	0	0	0	0	0	0	0	0	0	0	2.40340209960938	-9.59684326171875	-0.890348510742188	0.891981021927502	0.428731664057091	0.143384157967356	-0.438958341147842	0.745545186562503	0.50147577162832	0.108099173252644	-0.510246543377142	0.853207497455206
50	9.141516	0	0	0	0	0	0	0	0	0	0	0	0	3.00574951171875	-9.13520324707031	-2.33454528808594	0.894207953763634	0.425166172191322	0.140092331874497	-0.434031602425476	0.746841937549821	0.503829026965302	0.109584230260693	-0.511332422540375	0.852367555774598
51	9.141516	0	0	0	0	0	0	0	0	0	0	0	0	2.43393859863281	-9.551337890625	-0.684376831054687	0.896476348761384	0.421066576634883	0.137960480400864	-0.429362975764412	0.748614594566621	0.505196618995597	0.109442181786484	-0.512131942806571	0.851905676705456
52	9.141516	0	0	0	0	0	0	0	0	0	0	0	0	2.54889953613281	-9.33458862304687	-0.379011840820313	0.89803529989608	0.418354497531516	0.13605923171807	-0.426038221193132	0.749960815477947	0.506014040645361	0.109654157345495	-0.512384903800654	0.85172629179452
53	9.141516	0	0	0	0	0	0	0	0	0	0	0	0	2.76804382324219	-9.34716247558594	-1.10051147460938	0.900809447965864	0.41480069433393	0.128385055343389	-0.419486904055812	0.754993174507961	0.504000043424663	0.112129727463796	-0.507863850285174	0.854108443812853
54	9.141516	0	0	0	0	0	0	0	0	0	0	0	0	2.48902404785156	-9.2878857421875	0.74964111328125	0.902624515596311	0.411159803373852	0.127344414616818	-0.416041793645042	0.757544831287678	0.503025898468399	0.110354926419897	-0.507024106605297	0.854838198453929
55	9.141516	0	0	0	0	0	0	0	0	0	0	0	0	2.57464599609375	-8.99868713378906	-0.295784912109375	0.905021820527518	0.407082496376677	0.123366711526206	-0.411081340719781	0.762511263580399	0.49958853492154	0.109305240867422	-0.50285227856375	0.857433350332351
56	9.141516	0	0	0	0	0	0	0	0	0	0	0	0	2.16210388183594	-8.43885131835938	1.80764099121094	0.905703990171313	0.405086508979587	0.12492078462167	-0.410409260371577	0.764139178487637	0.4976500325545	0.106134448644246	-0.50199226701511	0.858335157539299
57	9.141516	0	0	0	0	0	0	0	0	0	0	0	0	1.93757080078125	-9.38129150390625	2.33933532714844	0.907318053152103	0.401446465316206	0.124958736827009	-0.407695138757229	0.767412667176605	0.494835803161628	0.102755166575707	-0.499918527104181	0.85995513952763
58	9.141516	0	0	0	0	0	0	0	0	0	0	0	0	2.31598388671875	-8.81546813964844	1.2693603515625	0.909398316880794	0.398070813827527	0.120558402581775	-0.403212455831247	0.772635136183687	0.490361766247074	0.102051049563019	-0.494544814463872	0.863140202846549
59	9.141516	0	0	0	0	0	0	0	0	0	0	0	0	1.65855102539063	-8.62386657714844	2.2752685546875	0.911338289075047	0.394358240546179	0.118085142922762	-0.399557328197899	0.778335892099489	0.48430071293882	0.0990780719893295	-0.488543567333575	0.866896025177104
60	9.141516	0	0	0	0	0	0	0	0	0	0	0	0	1.35857482910156	-8.33287170410156	4.40024963378906	0.912385799931024	0.391943288927384	0.118036478891108	-0.398030131917934	0.782216518908255	0.479280013804502	0.0955205013053078	-0.484270354050129	0.869688483319485
61	9.141516	0	0	0	0	0	0	0	0	0	0	0	0	1.52622619628906	-8.27299621582031	4.54395080566406	0.913909732427558	0.389078345487675	0.115702385657186	-0.395110021620148	0.787337796608709	0.473272928495462	0.0930433865974215	-0.478243907545007	0.873284428526334
62	9.141516	0	0	0	0	0	0	0	0	0	0	0	0	1.53101623535156	-8.09875854492187	3.46259948730469	0.91549790076914	0.385951317057906	0.113600944311942	-0.3921286808627	0.792831501482855	0.466533287023896	0.0899927293295194	-0.471656433347102	0.877178156106338
63	9.141516	0	0	0	0	0	0	0	0	0	0	0	0	0.504151611328125	-8.13228881835938	5.41454040527344	0.916452750040216	0.384048560181448	0.112343492763415	-0.390570737663091	0.797507543285308	0.459821940847043	0.0869991714043037	-0.465283163058357	0.880876110670153
64	9.141516	0	0	0	0	0	0	0	0	0	0	0	0	1.61663818359375	-6.82041687011719	3.94040588378906	0.917324892910698	0.382113126006989	0.111823967822397	-0.389194421677426	0.801417806148815	0.454155482321633	0.0839210520760499	-0.460129393671811	0.883876800293831
65	9.141516	0	0	0	0	0	0	0	0	0	0	0	0	0.679586791992188	-7.32935852050781	4.13200744628906	0.919878426478705	0.378420129086079	0.10306253636282	-0.383269720611318	0.811565650958838	0.440982443467175	0.0832346187687816	-0.445150985718591	0.891578711136702
66	9.141516	0	0	0	0	0	0	0	0	0	0	0	0	0.877774658203125	-6.25638977050781	5.42891052246094	0.920694828490307	0.377191963871594	0.100235997435524	-0.381791790433125	0.817169442342697	0.431820716570192	0.0809695099964982	-0.435844381507913	0.896372474788752
67	9.141516	0	0	0	0	0	0	0	0	0	0	0	0	0.403560791015625	-6.00491271972656	6.63540161132812	0.922076422290819	0.375238306087068	0.0947168680873238	-0.378770681768665	0.824779789710561	0.419846482797585	0.0794219244784733	-0.42300651546981	0.902639266696406
68	9.141516	0	0	0	0	0	0	0	0	0	0	0	0	0.875379638671875	-5.50674865722656	6.22944580078125	0.923029889357666	0.374124826076257	0.0897019390302391	-0.376752745388771	0.831754909134511	0.407726795750127	0.0779306883993597	-0.410139470965734	0.90868719709345
69	9.141516	0	0	0	0	0	0	0	0	0	0	0	0	0.182620239257813	-4.55472839355469	8.63344665527344	0.923954365153305	0.372622261033146	0.0863769743432809	-0.375010809702165	0.837982550098599	0.396424189898619	0.0753340807382728	-0.398670159797288	0.91399501090899
70	9.141516	0	0	0	0	0	0	0	0	0	0	0	0	0.015567626953125	-4.70800964355469	8.52567077636719	0.924798894435369	0.371864398344277	0.0803982219652189	-0.373115241384205	0.845160337554788	0.382738841079767	0.0743775604461841	-0.383954259083456	0.920351620541709
71	9.141516	0	0	0	0	0	0	0	0	0	0	0	0	0.347876586914063	-3.99189880371094	8.57536743164063	0.924850009101752	0.37222157170277	0.078125298230534	-0.373357493198588	0.84937161503677	0.373057692377863	0.0725027098593987	-0.37419107569389	0.92451305882291
72	9.141516	0	0	0	0	0	0	0	0	0	0	0	0	0.328716430664063	-2.81354919433594	8.4735791015625	0.924856737672971	0.37253533608871	0.0765339019401333	-0.374026405268059	0.854508955511629	0.360442357545113	0.0688786102005829	-0.361983243142134	0.929636417499411
73	9.141516	0	0	0	0	0	0	0	0	0	0	0	0	-0.228724365234375	-2.86204833984375	9.69683532714844	0.924987000656626	0.372911720508613	0.0730472266658099	-0.373963942500588	0.859197103638236	0.349186636068856	0.0674538236549827	-0.350310128039388	0.93420168907327
74	9.141516	0	0	0	0	0	0	0	0	0	0	0	0	0.113164672851563	-1.51484985351563	8.45142517089844	0.924740818433189	0.374347067074699	0.0686927368510465	-0.374821093942983	0.864424206169285	0.335081988957908	0.066057295273888	-0.335611479483603	0.93968152508173
75	9.141516	0	0	0	0	0	0	0	0	0	0	0	0	-0.64426025390625	-1.87709655761719	10.3123553466797	0.924272495979504	0.375446057994125	0.0689971790183449	-0.376633051570995	0.867456140151997	0.325065207884385	0.0621924242986034	-0.326435449130866	0.943171246333661
76	9.141516	0	0	0	0	0	0	0	0	0	0	0	0	0.256865844726562	-0.977766723632813	8.152646484375	0.92375888452711	0.377579834526883	0.0640546002710292	-0.377844956044955	0.871264665894078	0.313258792623395	0.0624716931787156	-0.313578300465981	0.94750511187447
77	9.141516	0	0	0	0	0	0	0	0	0	0	0	0	-0.0910107421875	-0.208965454101563	10.5482647705078	0.923227303756488	0.379202366305586	0.0621040335789086	-0.379532245243383	0.874633199027955	0.301615719050986	0.0600551448174346	-0.30203035037289	0.951404775600053
78	9.141516	0	0	0	0	0	0	0	0	0	0	0	0	-0.015567626953125	0.171243896484375	9.68126770019531	0.922238250258915	0.381990446755981	0.0596649674980262	-0.382060078967291	0.876801307763751	0.291975277657687	0.0592174452242106	-0.292066371379763	0.954563004149111
79	9.141516	0	0	0	0	0	0	0	0	0	0	0	0	0.01916015625	0.736468505859375	8.58195373535156	0.92153870821806	0.38409942623649	0.0568686207023697	-0.383938328230225	0.879535719718922	0.281084111707329	0.0579462627920975	-0.280863932364619	0.957996702564843
80	9.141516	0	0	0	0	0	0	0	0	0	0	0	0	-0.413739624023438	0.733474731445312	9.43937072753906	0.920566601104747	0.386721703356037	0.0548038053775494	-0.386367296647501	0.881050167700631	0.272893594787407	0.0572489738926156	-0.272391127146419	0.960481977363525
81	9.141516	0	0	0	0	0	0	0	0	0	0	0	0	0.0616717529296875	1.47533203125	8.74301879882812	0.919792600637449	0.388976878492447	0.0517548047128945	-0.388301222216127	0.883198251770385	0.26302663153224	0.0566015250506476	-0.262026403379521	0.963399414206762
82	9.141516	0	0	0	0	0	0	0	0	0	0	0	0	-0.107177124023438	1.49509094238281	9.034013671875	0.918811839224744	0.391520667869217	0.0499636941356942	-0.390769855066445	0.884544464430037	0.254715548833457	0.0555312927257453	-0.253559967418798	0.9657244008778
83	9.141516	0	0	0	0	0	0	0	0	0	0	0	0	-0.274229736328125	1.77650573730469	9.19747375488281	0.918350506848761	0.393020494681396	0.046553596327396	-0.391912883317473	0.886713217067211	0.24524266057948	0.0551057026124152	-0.243463675809571	0.968343327596614
84	9.141516	0	0	0	0	0	0	0	0	0	0	0	0	0.0401165771484375	2.05372924804688	9.28848449707031	0.917666137890221	0.394827743205082	0.044720381988846	-0.393560268959086	0.887622331195757	0.239242370535533	0.0547647155246744	-0.237144787752527	0.969929469381826
85	9.141516	0	0	0	0	0	0	0	0	0	0	0	0	-0.201181640625	2.14234497070313	9.03341491699219	0.916983368574047	0.396687692789713	0.0421945037625419	-0.395195436180458	0.888883696636638	0.231746286002006	0.0544248930245243	-0.2291825653115	0.971860732191866
86	9.141516	0	0	0	0	0	0	0	0	0	0	0	0	-0.06945556640625	2.35669921875	9.36931640625	0.915854746229306	0.3993335628735	0.0417467288779653	-0.397926265658957	0.88890067413874	0.226958759721698	0.0535235547023056	-0.224473377215319	0.973009214762932
87	9.141516	0	0	0	0	0	0	0	0	0	0	0	0	-0.413140869140625	2.27347229003906	9.65372497558594	0.914765687739408	0.401872790346356	0.0412552652867744	-0.400593635975099	0.889140469756481	0.22125542673	0.0522348097622479	-0.21892346932309	0.974342875598033
88	9.141516	0	0	0	0	0	0	0	0	0	0	0	0	0.156275024414063	2.55907836914063	9.08490783691406	0.913915983070061	0.403911176038095	0.0401663759954444	-0.402486945709194	0.88896376654086	0.218512425988025	0.0525531580665537	-0.215868440604484	0.975007170193236
89	9.141516	0	0	0	0	0	0	0	0	0	0	0	0	-0.226928100585938	2.50279541015625	9.120234375	0.912955313098929	0.406191085384635	0.0390051078512535	-0.404682133346186	0.888980474930368	0.214350381718711	0.0523924349006167	-0.211476990111524	0.975977722808546
90	9.141516	0	0	0	0	0	0	0	0	0	0	0	0	-0.30895751953125	2.40100708007812	9.08490783691406	0.911820882040212	0.408810959003959	0.0381612221197404	-0.407249988793355	0.888664983708205	0.210765256526563	0.0522506048120153	-0.207721319390087	0.97679154775603
91	9.141516	0	0	0	0	0	0	0	0	0	0	0	0	-0.0556842041015625	2.33454528808594	9.09808044433594	0.910443898675479	0.411733390860275	0.0395919463438475	-0.410436317316962	0.887384386660422	0.209978522088803	0.0513218938844246	-0.207423636941425	0.97690403727598
92	9.141516	0	0	0	0	0	0	0	0	0	0	0	0	0.0628692626953125	2.41358093261719	9.02084106445313	0.909682693652269	0.413411727334579	0.0395997546935973	-0.412064942569341	0.886589911476512	0.210144740532321	0.0517675571654559	-0.207482704267876	0.976867978518495
93	9.141516	0	0	0	0	0	0	0	0	0	0	0	0	-0.334703979492187	2.19204162597656	8.6651806640625	0.908517087718688	0.415950961624183	0.0397680631546291	-0.414630541265224	0.885642315589655	0.209091374970611	0.0517514789475671	-0.206452140606269	0.977087149677975
94	9.141516	0	0	0	0	0	0	0	0	0	0	0	0	-0.0999920654296875	1.97349609375	8.55141723632813	0.907365616489345	0.418399154526606	0.0403706019813035	-0.417094774558951	0.884277863037746	0.209963353890667	0.0521496600998512	-0.207351895175376	0.976875429376055
95	9.141516	0	0	0	0	0	0	0	0	0	0	0	0	-0.180225219726562	1.94595336914062	10.7865692138672	0.905954039134983	0.420922761786657	0.0455116203282619	-0.420275976793968	0.881124354677973	0.216767098341058	0.0511408086061094	-0.215508468982588	0.975161892965417
96	9.141516	0	0	0	0	0	0	0	0	0	0	0	0	-0.210162963867188	0.942440185546875	10.2039807128906	0.904475749786034	0.42334301226913	0.0520030000278012	-0.423530455900333	0.877002939379403	0.226909226883226	0.0504536517394752	-0.227258747428534	0.972526550148306
97	9.141516	0	0	0	0	0	0	0	0	0	0	0	0	0.05748046875	1.37054992675781	7.71495666503906	0.902165620167487	0.427191277840316	0.0600400360174222	-0.42862667627954	0.871935372992973	0.236659835428745	0.0487479863109218	-0.23924112828016	0.969735694078478
98	9.141516	0	0	0	0	0	0	0	0	0	0	0	0	-0.37601806640625	-0.185614013671875	10.8799749755859	0.901615279345081	0.428145905267576	0.0614896076918609	-0.429516129641879	0.869444135364197	0.2440958620261	0.0510468650257002	-0.246491337136646	0.967799689133881
99	9.141516	0	0	0	0	0	0	0	0	0	0	0	0	-0.00239501953125	-0.260458374023438	8.47058532714844	0.899982535471633	0.430711257006047	0.0672253593097357	-0.432749195037828	0.864153041266633	0.256841693390582	0.0525316099140688	-0.2602447585599	0.964112594877764
100	9.141516	0	0	0	0	0	0	0	0	0	0	0	0	0.262254638671875	-0.833466796875	7.29403198242188	0.899293204091927	0.432003162080623	0.0681542443756752	-0.434060392552922	0.862565794440345	0.259945813350206	0.0535098933925229	-0.263350561445843	0.963215019139175
101	9.141516	0	0	0	0	0	0	0	0	0	0	0	0	-0.724493408203125	-2.00403259277344	10.6446643066406	0.897922895345446	0.434068335787459	0.0729325296500672	-0.436608198531047	0.857392985362302	0.27248954039925	0.0557472419938962	-0.276517537451472	0.959390585992925
102	9.141516	0	0	0	0	0	0	0	0	0	0	0	0	0.693956909179688	-1.61963195800781	7.87542297363281	0.896824167568203	0.435792620518796	0.0760999629892238	-0.438670128470611	0.853779840008353	0.280407744513039	0.0572270115695213	-0.284859222593675	0.956859599131529
103	9.141516	0	0	0	0	0	0	0	0	0	0	0	0	-0.219144287109375	-2.902763671875	9.65073120117188	0.895758513113673	0.437446436111051	0.0791031081445079	-0.440477181890123	0.849399327451373	0.290689928892094	0.0599711465499629	-0.295231092635744	0.95354185200367
104	9.141516	0	0	0	0	0	0	0	0	0	0	0	0	0.356259155273438	-2.74888366699219	8.40472229003906	0.894338608667027	0.439610696613229	0.0830715864225416	-0.442905767778769	0.843751167668935	0.303180553343399	0.0631896662107455	-0.307938959017111	0.949305358461456
105	9.141516	0	0	0	0	0	0	0	0	0	0	0	0	0.104183349609375	-3.96914611816406	8.19994812011719	0.893304258142196	0.440819263599905	0.0876691463643752	-0.444834972896245	0.839256165873617	0.312683442048844	0.0642600130206765	-0.318319752579625	0.945802931822602
106	9.141516	0	0	0	0	0	0	0	0	0	0	0	0	0.547261962890625	-3.89669677734375	8.48555419921875	0.891465008986155	0.443366354780939	0.0933617330686237	-0.44805005702692	0.831984688091976	0.327188974720529	0.0673890506795286	-0.333508252114936	0.940335557989674
107	9.141516	0	0	0	0	0	0	0	0	0	0	0	0	0.593366088867188	-4.67747314453125	7.18445983886719	0.890810985931411	0.443712154891315	0.0978535177988699	-0.448964614847404	0.826419316284979	0.339796833837499	0.0699039480918606	-0.346627519497188	0.935394462656476
108	9.141516	0	0	0	0	0	0	0	0	0	0	0	0	0.56282958984375	-4.95230163574219	7.41737548828125	0.889082651350946	0.445510519456547	0.105130471892454	-0.452137847434128	0.818870097931401	0.353586099318753	0.0714381269659635	-0.361900731924345	0.929475365057202
109	9.141516	0	0	0	0	0	0	0	0	0	0	0	0	0.911304931640625	-5.31933837890625	6.82820068359375	0.888478472084452	0.445349960782552	0.110767400770521	-0.452907928325581	0.811981901490436	0.368184464788787	0.0740298122536305	-0.377291404729759	0.923130967314355
110	9.141516	0	0	0	0	0	0	0	0	0	0	0	0	0.761017456054688	-6.32704284667969	6.63001281738281	0.887384010893556	0.446088973796864	0.116422698247919	-0.454540828715586	0.804313077018045	0.382718054405999	0.077086005480978	-0.392536751903088	0.916500216128922
111	9.141516	0	0	0	0	0	0	0	0	0	0	0	0	0.892144775390625	-6.66893188476562	6.13903381347656	0.886527077192489	0.445687264812659	0.124228029801465	-0.455838891983945	0.795362818536391	0.399510815178635	0.0792505265559251	-0.410805122745152	0.908272263788204
112	9.141516	0	0	0	0	0	0	0	0	0	0	0	0	1.03285217285156	-7.21140380859375	5.46483581542969	0.885700712290055	0.445117782868267	0.13192576557795	-0.457133185008352	0.786569586593386	0.415135564135896	0.0810154270062735	-0.427993510255411	0.900143352897883
113	9.141516	0	0	0	0	0	0	0	0	0	0	0	0	1.45497436523438	-7.82752258300781	4.20924682617188	0.885646489778285	0.443821885026278	0.136573897634668	-0.45662835654256	0.778934094962408	0.429828128100449	0.0843850647013089	-0.443039287283663	0.892521904929251
114	9.141516	0	0	0	0	0	0	0	0	0	0	0	0	1.2022998046875	-7.96343994140625	3.84400634765625	0.885199485951859	0.442996493201538	0.142042166562274	-0.457022287513921	0.771052628121751	0.443405540540579	0.0869051136936598	-0.45741879244045	0.884994660738816
115	9.141516	0	0	0	0	0	0	0	0	0	0	0	0	1.17236206054687	-8.27419372558594	3.36560119628906	0.884569024667545	0.442606700227277	0.147095035649166	-0.457791688966192	0.763571624988019	0.455395589599458	0.0892435438123674	-0.470167717338267	0.878053476424263
116	9.141516	0	0	0	0	0	0	0	0	0	0	0	0	1.71303771972656	-8.49154174804688	3.29734313964844	0.883710997988785	0.442036737631301	0.153812855827928	-0.459022193735917	0.754381692303517	0.469262067479515	0.0913974709252552	-0.485295564477524	0.869560071189397
117	9.141516	0	0	0	0	0	0	0	0	0	0	0	0	1.51425109863281	-8.67535949707031	1.93098449707031	0.883525936913401	0.440415210271018	0.159425096403401	-0.458864255542767	0.745619320520295	0.483213642038423	0.0939442057099901	-0.500086263987314	0.860864806334148
118	9.141516	0	0	0	0	0	0	0	0	0	0	0	0	1.71902526855469	-9.3884765625	0.887953491210938	0.883320121763263	0.43913115002423	0.164040835058013	-0.458515018971547	0.736570924777215	0.497219519076193	0.097516869646516	-0.514419192732188	0.851976146545846
119	9.141516	0	0	0	0	0	0	0	0	0	0	0	0	2.31299011230469	-9.01185974121094	0.686173095703125	0.884212185673721	0.436298858658124	0.166769651434908	-0.456041675202706	0.729221975396844	0.510158113800647	0.100969308130797	-0.5271419320562	0.843757419098431
120	9.141516	0	0	0	0	0	0	0	0	0	0	0	0	1.77470947265625	-9.11724060058594	0.716709594726562	0.884539451848937	0.434303232317852	0.170207698183864	-0.454749638235402	0.721601883169321	0.522009088743924	0.10388803900139	-0.539139522391706	0.83578457197276
121	9.141516	0	0	0	0	0	0	0	0	0	0	0	0	2.52854187011719	-9.13220947265625	-0.648451538085938	0.885241841818117	0.431744532752382	0.17304201782485	-0.452921562394087	0.715450615804343	0.531970370099394	0.105872280663859	-0.549296891292509	0.828893229193857
122	9.141516	0	0	0	0	0	0	0	0	0	0	0	0	1.82799865722656	-9.62258972167969	-0.0437091064453125	0.885745280646722	0.429105521555513	0.176985166561017	-0.451564781291924	0.708330953538744	0.54254631927207	0.107445549506887	-0.560478109857527	0.821169740225307
123	9.141516	0	0	0	0	0	0	0	0	0	0	0	0	2.87821472167969	-8.84420837402344	-1.91781188964844	0.886532197553682	0.426559313210569	0.179186536921633	-0.449707446734537	0.703428641459245	0.550410173167525	0.108737643215879	-0.56853786038234	0.815439038959828
124	9.141516	0	0	0	0	0	0	0	0	0	0	0	0	2.30820007324219	-10.0728533935547	-1.81302978515625	0.888264164309832	0.423235955904948	0.178488375061739	-0.445871875599539	0.701090637987424	0.556480177432886	0.110385891092589	-0.573884346323901	0.81146269913785
125	9.141516	0	0	0	0	0	0	0	0	0	0	0	0	2.51177673339844	-9.41362426757813	-1.75435180664063	0.888828964522551	0.420792329013266	0.181430117867353	-0.444482358495468	0.695406752256307	0.564663512104901	0.111438345339817	-0.582531771459658	0.805132430366581
126	9.141516	0	0	0	0	0	0	0	0	0	0	0	0	2.66026794433594	-9.7094091796875	-2.17407897949219	0.89073201471539	0.417372287279865	0.179991254709326	-0.440346618089144	0.694248119397561	0.569310464202445	0.112655820526579	-0.586361597074471	0.802177501291179
127	9.141516	0	0	0	0	0	0	0	0	0	0	0	0	2.11659851074219	-10.0405206298828	-1.72321655273438	0.89136557360855	0.414975878957316	0.182379916846957	-0.438913365375645	0.689646658702596	0.575970957457902	0.113236354057018	-0.593449665956556	0.796865749104531
128	9.141516	0	0	0	0	0	0	0	0	0	0	0	0	2.80396911621094	-9.45014831542969	-2.42675354003906	0.892590233460723	0.41288889012564	0.18112271956149	-0.436187271946174	0.689104559564665	0.578684343817373	0.114119844561264	-0.595531418481012	0.795184878301459
129	9.141516	0	0	0	0	0	0	0	0	0	0	0	0	1.85434387207031	-9.63516357421875	-0.163460083007813	0.892705499946204	0.410864220742627	0.185114781903963	-0.436116569133644	0.68422900445378	0.584493804579047	0.113486688615436	-0.602512457612076	0.789999689828648
130	9.141516	0	0	0	0	0	0	0	0	0	0	0	0	2.68002685546875	-9.0052734375	-2.46567260742188	0.894081456589053	0.408427162619044	0.183862997415344	-0.433130905564895	0.683829282674321	0.587175553647849	0.114087543702772	-0.604619520849336	0.788301507914191
131	9.141516	0	0	0	0	0	0	0	0	0	0	0	0	1.92679321289063	-9.72078552246094	-0.111967163085938	0.894375834288529	0.406192149731668	0.187349418299243	-0.432762432066047	0.67975951046038	0.592151741811966	0.113174840105824	-0.610683998017822	0.783745181887576
132	9.141516	0	0	0	0	0	0	0	0	0	0	0	0	2.79438903808594	-9.31363220214844	-2.4285498046875	0.89622327994712	0.403370379802902	0.184597316281924	-0.428668754856804	0.680436423633254	0.594347854377136	0.114135582051976	-0.61179948519989	0.782735241840309
133	9.141516	0	0	0	0	0	0	0	0	0	0	0	0	1.82081359863281	-9.51122131347656	-0.0125738525390625	0.896573286606568	0.401348109014846	0.187285976874153	-0.428217851280345	0.677580989005823	0.597924305562782	0.113074371934327	-0.616282158372363	0.779365439112846
134	9.141516	0	0	0	0	0	0	0	0	0	0	0	0	2.62793518066406	-9.0196435546875	-1.82739990234375	0.898159343494838	0.398942656020421	0.184809498944983	-0.424725736867071	0.678601800422318	0.599255909362864	0.113656685397942	-0.616720644758194	0.778933761107703
135	9.141516	0	0	0	0	0	0	0	0	0	0	0	0	2.0357666015625	-9.27950317382813	-1.10709777832031	0.899551487647884	0.396417819581831	0.183466709210329	-0.421882447340718	0.679573999250127	0.600161961614526	0.113235690911861	-0.61727796968722	0.778553521886927
136	9.141516	0	0	0	0	0	0	0	0	0	0	0	0	2.02319274902344	-9.53098022460938	-0.77359130859375	0.900516616544936	0.393888726784516	0.184177887485262	-0.419916705736252	0.677832027617049	0.603501203462077	0.112870649728241	-0.62080223360474	0.775799460673499
137	9.141516	0	0	0	0	0	0	0	0	0	0	0	0	2.52973937988281	-8.95557678222656	-2.12797485351563	0.90243577958192	0.391334934409816	0.180184996159056	-0.41583816382405	0.681854203414042	0.601791879966859	0.112642288851995	-0.618006322295386	0.778061630184342
138	9.141516	0	0	0	0	0	0	0	0	0	0	0	0	1.81722106933594	-10.2584674072266	-1.427431640625	0.905686983148755	0.387568103434259	0.17181982934248	-0.408878950587246	0.691450083823195	0.595579369477797	0.112022731271737	-0.609661993879616	0.784705779829072
139	9.141516	0	0	0	0	0	0	0	0	0	0	0	0	1.31606323242188	-9.79443237304688	2.54590576171875	0.905722829958254	0.385962497082254	0.175211603892102	-0.409826605497409	0.69187428805205	0.594434288175691	0.108204938514296	-0.610199082577564	0.784824038178379
140	9.141516	0	0	0	0	0	0	0	0	0	0	0	0	1.81722106933594	-9.73216186523438	-1.2597802734375	0.909829792509428	0.382423485773593	0.161127360156574	-0.400284221802897	0.706332926317002	0.583837596405122	0.109463648933797	-0.595689579167905	0.795720827195608
141	9.141516	0	0	0	0	0	0	0	0	0	0	0	0	0.994531860351563	-9.68007019042969	3.76437194824219	0.909992837955237	0.38176897370736	0.16175749004174	-0.400680615544849	0.709384757129383	0.579851973075101	0.10662119487595	-0.592474233251469	0.798502475723344
142	9.141516	0	0	0	0	0	0	0	0	0	0	0	0	2.098037109375	-8.53165832519531	0.6370751953125	0.911831961432876	0.37983651081206	0.155841904389015	-0.396947282984466	0.718666259692105	0.570921764965579	0.104858612620641	-0.582445733295627	0.806077936135827
143	9.141516	0	0	0	0	0	0	0	0	0	0	0	0	0.678389282226563	-9.32500854492188	4.34276916503906	0.913737155820641	0.378408437527857	0.147957644211214	-0.392669746522446	0.728888845871222	0.560831098041573	0.104378543000007	-0.57055070306875	0.814602366181778
144	9.141516	0	0	0	0	0	0	0	0	0	0	0	0	1.6142431640625	-7.72573425292969	3.27638671875	0.914799026331049	0.377567579919545	0.143476353513266	-0.390760741050113	0.737403962878313	0.55094594905973	0.102219296992947	-0.560069743982888	0.822115014579597
145	9.141516	0	0	0	0	0	0	0	0	0	0	0	0	1.12146789550781	-8.16282531738281	3.32009582519531	0.916449616736555	0.376456443515114	0.135648981269206	-0.387030816725292	0.74782534219033	0.539411164588636	0.10162306277797	-0.546843491059249	0.831044493031364
146	9.141516	0	0	0	0	0	0	0	0	0	0	0	0	1.38851257324219	-6.75215881347656	5.38280639648438	0.916971860354876	0.376447279643482	0.132098648616635	-0.386255492375803	0.754841639588637	0.530113944122077	0.0998463916566087	-0.537123398105278	0.837573371879141
147	9.141516	0	0	0	0	0	0	0	0	0	0	0	0	0.937650146484375	-6.34740051269531	6.95573547363281	0.91738058067651	0.376320182211386	0.12959934667281	-0.38630966224434	0.763508440528414	0.517513000898078	0.0958003917230675	-0.524821857111782	0.845803939009182
148	9.141516	0	0	0	0	0	0	0	0	0	0	0	0	0.834065551757812	-6.39230712890625	5.06127502441406	0.918651371951866	0.375073666350469	0.124094325500292	-0.384087285921936	0.77436671204233	0.5028251704856	0.0925019654065613	-0.509584085398247	0.855434068940883
149	9.141516	0	0	0	0	0	0	0	0	0	0	0	0	0.581390991210938	-5.30197448730469	7.10542419433594	0.919633269311378	0.375147623974646	0.116356822755885	-0.38189552605995	0.784767217441082	0.4881559398442	0.091817520937241	-0.493360592929713	0.864965241031674
150	9.141516	0	0	0	0	0	0	0	0	0	0	0	0	0.0496966552734375	-4.32660278320312	8.14366516113281	0.919602641224929	0.376015637361259	0.113768285176235	-0.382985246068634	0.793604401541998	0.472773048245049	0.0874830471913421	-0.478334918559135	0.873809145146206
151	9.141516	0	0	0	0	0	0	0	0	0	0	0	0	-0.206570434570313	-3.88352416992188	9.54894287109375	0.919343740143944	0.377618302233917	0.110505679836462	-0.383788409317058	0.79878556281132	0.46330128590161	0.086680703342941	-0.468343936079221	0.879284034431307
152	9.141516	0	0	0	0	0	0	0	0	0	0	0	0	0.94603271484375	-2.57943603515625	7.31139587402344	0.918647300028627	0.379481477837802	0.109913357369124	-0.386248158180279	0.804166657156943	0.451805652708519	0.0830632196128761	-0.457503874841587	0.885319550248653
153	9.141516	0	0	0	0	0	0	0	0	0	0	0	0	0.248483276367188	-2.72852600097656	9.15795593261719	0.919057180527768	0.379687986890627	0.10569262761088	-0.385592460731428	0.810730361899707	0.440493739479976	0.081561958947977	-0.44559321460825	0.891512385751121
154	9.141516	0	0	0	0	0	0	0	0	0	0	0	0	0.292791137695313	-2.2369482421875	8.20413940429687	0.918114212378802	0.382384120612041	0.104156984076004	-0.388339796212737	0.815550008172194	0.429034249038215	0.0791106548165495	-0.43435074360946	0.897263024882005
155	9.141516	0	0	0	0	0	0	0	0	0	0	0	0	-0.568218383789063	-1.04482727050781	8.46040649414063	0.917346806988211	0.385295609091356	0.100110585471541	-0.390496893304084	0.82205400527987	0.414414513166687	0.0773757845090633	-0.419254703036524	0.904565355269238
156	9.141516	0	0	0	0	0	0	0	0	0	0	0	0	-0.922681274414063	-0.818497924804688	8.12151123046875	0.918049911679273	0.38616118374119	0.0897992195805864	-0.388737095501567	0.832259648407705	0.395256053986891	0.0778962787730246	-0.397773073251428	0.914171073677914
157	9.141516	0	0	0	0	0	0	0	0	0	0	0	0	-0.549656982421875	1.86093017578125	8.21850952148437	0.916199828639156	0.390009996664822	0.0920330185481684	-0.393632072494212	0.832921969067632	0.388966303101451	0.0750444235469469	-0.392598008076969	0.916643408610187
158	9.141516	0	0	0	0	0	0	0	0	0	0	0	0	-0.463436279296875	2.26508972167969	9.18909118652344	0.914212033150066	0.394568146881772	0.0923706441999092	-0.398287244574624	0.83284930963834	0.384355692352921	0.0747236860224098	-0.388172648316731	0.918552320690553
159	9.141516	0	0	0	0	0	0	0	0	0	0	0	0	-0.451461181640625	2.98778686523438	10.4824017333984	0.912120088943086	0.398849159444638	0.0946376846544832	-0.403097921465588	0.830749648966087	0.383884209694597	0.0744916710550842	-0.38829675346702	0.918518710854816
160	9.141516	0	0	0	0	0	0	0	0	0	0	0	0	-0.470022583007813	2.27167602539062	9.78904357910156	0.910936608160145	0.401703458329964	0.0939618405494344	-0.4054073934478	0.829457572820188	0.384245989216678	0.0764155825179061	-0.388116562976884	0.918436819978086
161	9.141516	0	0	0	0	0	0	0	0	0	0	0	0	-0.769400024414063	2.0261865234375	9.58726318359375	0.90922071884668	0.405381298520158	0.0947823149645441	-0.409004317429386	0.827320014788173	0.385041636001902	0.0776733721686534	-0.388854209108001	0.918019199861823
162	9.141516	0	0	0	0	0	0	0	0	0	0	0	0	-0.8813671875	1.50766479492188	9.94352233886719	0.906410281451701	0.410834326984045	0.098160875353752	-0.414722771771321	0.82147479044353	0.391387520547183	0.080158744082979	-0.395467222962063	0.914975546837026
163	9.141516	0	0	0	0	0	0	0	0	0	0	0	0	-0.664019165039063	1.2502001953125	8.92923156738281	0.902084835420327	0.416793776367475	0.111919156921508	-0.423882106175249	0.807026944441088	0.411134370991427	0.0810364718451964	-0.418318609348688	0.904678192123289
164	9.141516	0	0	0	0	0	0	0	0	0	0	0	0	-0.505947875976563	-0.174237670898438	8.71427856445313	0.898038666542456	0.422176220048993	0.123668074375692	-0.432149988680277	0.794018436460528	0.427529074852712	0.0822978777264895	-0.437380797230426	0.895502706604393
165	9.141516	0	0	0	0	0	0	0	0	0	0	0	0	-0.231718139648438	-0.982556762695313	8.50052307128906	0.896131395949702	0.424864454570949	0.128213557923366	-0.435126914994066	0.78437123599833	0.442070505673246	0.0872530173746729	-0.451942429276764	0.88776965006607
166	9.141516	0	0	0	0	0	0	0	0	0	0	0	0	-0.094603271484375	-1.916015625	7.66645751953125	0.894911229890246	0.425122070881695	0.13566545420846	-0.437365749910671	0.775247466617491	0.455743970128227	0.0885725206901372	-0.46718581993937	0.879711497154706
167	9.141516	0	0	0	0	0	0	0	0	0	0	0	0	0.662821655273438	-2.80576538085938	7.58023681640625	0.894871635632904	0.422717810886536	0.143228517059233	-0.437220369494919	0.765773440280448	0.471624200672287	0.0896833554145857	-0.484665545010518	0.870089768495894
168	9.141516	0	0	0	0	0	0	0	0	0	0	0	0	0.111967163085938	-4.81818054199219	7.10901672363281	0.894473502372502	0.421533478856189	0.149086148776033	-0.437704827339768	0.757456660449849	0.484431513904314	0.0912778049524327	-0.49856687991037	0.862032150548635
169	9.141516	0	0	0	0	0	0	0	0	0	0	0	0	-0.804127807617187	-6.5767236328125	7.27187805175781	0.89488898262304	0.419350637018424	0.152704787129097	-0.436098475502706	0.74897130551238	0.498858800847791	0.0948252521436982	-0.513017569632194	0.853124343108647
170	9.141516	0	0	0	0	0	0	0	0	0	0	0	0	0.5604345703125	-6.30069763183594	5.77558959960938	0.894742319184246	0.417385939227623	0.158824305431736	-0.4361382655998	0.740221634277411	0.511718033126915	0.0960187249467347	-0.527125136834466	0.844345601384202
171	9.141516	0	0	0	0	0	0	0	0	0	0	0	0	-0.0856219482421875	-7.232958984375	6.45637390136719	0.894806152328355	0.415614261009071	0.163054395221987	-0.435303941065539	0.731072337956027	0.525398625396296	0.0991586035003189	-0.541108143277656	0.835086551580418
172	9.141516	0	0	0	0	0	0	0	0	0	0	0	0	-0.361049194335938	-7.73950561523438	4.44335998535156	0.893958219614549	0.414870594647838	0.169472980973769	-0.436564259861336	0.720745100208061	0.53845904908154	0.10124400523147	-0.555345739357584	0.825433680668574
173	9.141516	0	0	0	0	0	0	0	0	0	0	0	0	0.487386474609375	-7.73351806640625	4.07452697753906	0.894423746046255	0.411342060830136	0.17551031736226	-0.435066084192236	0.70943792115108	0.554450483288156	0.103555129733967	-0.572272264769884	0.813499102692148
174	9.141516	0	0	0	0	0	0	0	0	0	0	0	0	0.450263671875	-8.61907653808594	3.09616149902344	0.893712482153544	0.410434849306035	0.181166315075635	-0.43610837050465	0.699991765761243	0.565527202742925	0.105297143450004	-0.584426866546697	0.804585451794699
175	9.141516	0	0	0	0	0	0	0	0	0	0	0	0	0.710722045898438	-8.61668151855469	3.56498657226563	0.893873321334592	0.407640709626754	0.186599939070898	-0.435454810772701	0.690449711933127	0.577631632674644	0.106628294468112	-0.597585347165122	0.794683685293943
176	9.141516	0	0	0	0	0	0	0	0	0	0	0	0	0.224533081054688	-9.28489196777344	2.76804382324219	0.893319483770218	0.406269363935744	0.192160099510165	-0.436000789875527	0.679716239323302	0.589821282447576	0.109011977068701	-0.610680798721749	0.784337523600739
177	9.141516	0	0	0	0	0	0	0	0	0	0	0	0	1.15320190429688	-9.29147827148438	1.4897021484375	0.893402894449082	0.403981156791686	0.196546414740269	-0.435184703241342	0.669565860590563	0.601910153092938	0.111559590599588	-0.623282266143415	0.773998497709383
178	9.141516	0	0	0	0	0	0	0	0	0	0	0	0	1.2022998046875	-8.89929382324219	0.307760009765625	0.892819736489696	0.402525835598964	0.202103611570465	-0.436221435161138	0.661000533912776	0.610564618752989	0.112177438196933	-0.633286069515492	0.76574472020197
179	9.141516	0	0	0	0	0	0	0	0	0	0	0	0	0.685574340820313	-9.60941711425781	1.58729919433594	0.89222485837515	0.400380714436765	0.208878159711706	-0.437388307749908	0.651076301849777	0.620315337077272	0.112366678072796	-0.64482162857392	0.75602830435253
180	9.141516	0	0	0	0	0	0	0	0	0	0	0	0	0.956810302734375	-10.0997973632813	-0.182021484375	0.894053891493094	0.396836188409988	0.20781886024682	-0.433565801806713	0.649914693881258	0.624204763023267	0.112642508005449	-0.648175848242946	0.753113361416978
181	9.141516	0	0	0	0	0	0	0	0	0	0	0	0	1.23642883300781	-10.1776354980469	-0.486787719726563	0.895057878138539	0.394563535875998	0.207824471463705	-0.431223070738813	0.646994480693755	0.628844022961503	0.113657635224065	-0.652470503631275	0.749242406599109
182	9.141516	0	0	0	0	0	0	0	0	0	0	0	0	0.8478369140625	-10.106982421875	0.094603271484375	0.895510089306209	0.39340044201081	0.20808116727971	-0.43029840850889	0.646028829438772	0.630468104798877	0.113599998175631	-0.65412754395429	0.747804918849045
183	9.141516	0	0	0	0	0	0	0	0	0	0	0	0	0.89334228515625	-10.2967877197266	-0.517922973632812	0.897557816914596	0.391538894106406	0.202699925252668	-0.425796964259505	0.650490577759814	0.62893477680368	0.114398035485293	-0.650814338077794	0.750568975397644
184	9.141516	0	0	0	0	0	0	0	0	0	0	0	0	1.29630432128906	-9.44895080566406	0.600551147460938	0.897931383722294	0.390894862735932	0.202288003631515	-0.425143673436734	0.651378015140506	0.628458064096829	0.113895070408188	-0.650313684061985	0.751079240332498
185	9.141516	0	0	0	0	0	0	0	0	0	0	0	0	0.91729248046875	-9.51122131347656	0.0928070068359375	0.900472251894058	0.388839600566135	0.19481655114598	-0.419637286346537	0.659121617325092	0.624069901118833	0.114255290803359	-0.643709918058068	0.756692321830423
186	9.141516	0	0	0	0	0	0	0	0	0	0	0	0	0.829275512695313	-9.40164916992187	1.43940673828125	0.902630774434515	0.38712371470717	0.188130046922518	-0.415063442848641	0.667188992948794	0.618531475430804	0.113929905882436	-0.636391449659167	0.762906219234267
187	9.141516	0	0	0	0	0	0	0	0	0	0	0	0	0.78796142578125	-8.90887390136719	2.38304443359375	0.904004865719176	0.385778566532993	0.184255530065734	-0.412514612046	0.673912015831247	0.612922743718002	0.112280441772346	-0.630093241133417	0.768359037087085
188	9.141516	0	0	0	0	0	0	0	0	0	0	0	0	0.514330444335938	-8.44603637695313	3.16980834960937	0.90501337002041	0.385559168726931	0.17970789491533	-0.410645210953507	0.681628114118768	0.60560186984837	0.111001400014822	-0.621873975539651	0.775210582836212
189	9.141516	0	0	0	0	0	0	0	0	0	0	0	0	0.6514453125	-8.05744445800781	4.01345397949219	0.9070605275481	0.383775388271301	0.173082785745363	-0.406530546184009	0.691580325554473	0.59703397585506	0.109426296581281	-0.611909392527342	0.783321633145239
190	9.141516	0	0	0	0	0	0	0	0	0	0	0	0	0.28979736328125	-7.54491027832031	4.82416809082031	0.907701559717507	0.384377229715094	0.168321192257406	-0.405267807240965	0.699041362686636	0.589151234970539	0.108792843976546	-0.602988655390598	0.790296652257704
191	9.141516	0	0	0	0	0	0	0	0	0	0	0	0	0.240100708007813	-6.99884582519531	5.048701171875	0.908760636799925	0.383924228847014	0.163573504905957	-0.403320236637959	0.707334468455152	0.580526258194724	0.107176917856851	-0.593531916782487	0.797642132813465
192	9.141516	0	0	0	0	0	0	0	0	0	0	0	0	0.05987548828125	-7.06949890136719	5.80133605957031	0.909653212354647	0.384232810672385	0.157785235227099	-0.401440515489162	0.715705545816974	0.571498980060878	0.106660891505122	-0.583207269235927	0.805290466436618
193	9.141516	0	0	0	0	0	0	0	0	0	0	0	0	0.4454736328125	-6.0498193359375	6.7108447265625	0.91051480458405	0.384303818858299	0.152556105889598	-0.399754703170395	0.723926381885457	0.562251519253956	0.105636016236984	-0.572923353007329	0.812772947170623
194	9.141516	0	0	0	0	0	0	0	0	0	0	0	0	-0.008382568359375	-5.61212951660156	6.91921142578125	0.91092327036707	0.385534518906872	0.146907897115875	-0.398951018876966	0.732357059900481	0.551807232057495	0.105151700132674	-0.561263103673465	0.820930477211096
195	9.141516	0	0	0	0	0	0	0	0	0	0	0	0	-0.0137713623046875	-4.78704528808594	8.09097473144531	0.910642488333607	0.387873903002993	0.142422237767849	-0.399667449176585	0.739374143002416	0.541841126833434	0.104862712678334	-0.550345084495781	0.828326082808621
196	9.141516	0	0	0	0	0	0	0	0	0	0	0	0	0.434696044921875	-3.70389770507813	7.87242919921875	0.910163195370362	0.389746008258911	0.140360275147412	-0.401134246357137	0.744627307352377	0.533499287295345	0.103413123890078	-0.541874729242279	0.834072840713509
197	9.141516	0	0	0	0	0	0	0	0	0	0	0	0	0.262254638671875	-2.58901611328125	8.34544555664062	0.910091848001661	0.391906676137466	0.134692187597516	-0.40144158428734	0.753087972363421	0.521251532646593	0.102846889140079	-0.52845781580031	0.84270686143746
198	9.141516	0	0	0	0	0	0	0	0	0	0	0	0	-0.21315673828125	-2.36208801269531	9.55253540039063	0.909999369550753	0.393014026513678	0.132064841576926	-0.402007592291604	0.758445887129114	0.512981219965059	0.101444778855988	-0.519903655748292	0.848179901661447
199	9.141516	0	0	0	0	0	0	0	0	0	0	0	0	-0.08382568359375	-1.69926635742188	9.63396606445312	0.908969216138651	0.395593619280103	0.131455895634831	-0.404669174910096	0.761643794178939	0.50610432685988	0.100089075277317	-0.51322940209382	0.852395306085476
200	9.141516	0	0	0	0	0	0	0	0	0	0	0	0	0.190404052734375	-1.62082946777344	9.19148620605469	0.909331540449627	0.396596430414299	0.125807078203671	-0.403655466239791	0.767582434279359	0.497874955345729	0.100888126745648	-0.50351611490439	0.858075234413244
201	9.141516	0	0	0	0	0	0	0	0	0	0	0	0	0.028740234375	-1.07356750488281	9.78245727539062	0.908591715797276	0.398808589131221	0.124148311384923	-0.405321009319104	0.770063801914906	0.49266278567079	0.100876029804436	-0.497949244617888	0.861319090927033
202	9.141516	0	0	0	0	0	0	0	0	0	0	0	0	0.52929931640625	-0.710722045898438	8.89450378417969	0.908448489277685	0.399806650246419	0.121967146182203	-0.405899355336654	0.774075781002053	0.485852239475493	0.0998351424418376	-0.490878118971299	0.865489235432087
203	9.141516	0	0	0	0	0	0	0	0	0	0	0	0	-0.190404052734375	-0.609532470703125	8.92264526367187	0.907552867450384	0.402587845023132	0.119460536673066	-0.407615037439616	0.776117450615783	0.481135827082913	0.100984028616839	-0.485350110630759	0.868468477306473
204	9.141516	0	0	0	0	0	0	0	0	0	0	0	0	0.240100708007813	0.0604742431640625	8.8663623046875	0.906576507018492	0.405287928673671	0.11773160915215	-0.409794976817736	0.778613708851305	0.475214445659816	0.100931233506286	-0.479064074274225	0.871957853822465
205	9.141516	0	0	0	0	0	0	0	0	0	0	0	0	0.308358764648438	-0.0065863037109375	9.60941711425781	0.905496758516207	0.408346728864782	0.115449423307673	-0.411937371562625	0.780519324680426	0.470209725240224	0.101898097267404	-0.473331314013603	0.874970996632139
206	9.141516	0	0	0	0	0	0	0	0	0	0	0	0	0.82388671875	0.585582275390625	8.00235900878906	0.905410907439545	0.409227735128797	0.112976765269918	-0.412416973071413	0.784715211620539	0.462746449985245	0.100714095399365	-0.465569218755588	0.879262175653655
207	9.141516	0	0	0	0	0	0	0	0	0	0	0	0	0.496966552734375	0.82149169921875	9.43278442382813	0.903648062259439	0.413350735029836	0.112077426027973	-0.416206224232213	0.785887944931243	0.45733195484474	0.100958201673399	-0.459914457113538	0.882205267300549
208	9.141516	0	0	0	0	0	0	0	0	0	0	0	0	0.192200317382813	1.6046630859375	9.50882629394531	0.901439489732755	0.41785098170655	0.113169799139269	-0.420978041414281	0.785178810592471	0.454171469869683	0.100917466264994	-0.457050098439399	0.883697274251307
209	9.141516	0	0	0	0	0	0	0	0	0	0	0	0	0.53887939453125	1.63939086914063	8.36879699707031	0.900359164407074	0.420064078035184	0.11357616568914	-0.423240974338718	0.784729751556966	0.452842461196117	0.101096254673499	-0.455790946998506	0.884326953069507
210	9.141516	0	0	0	0	0	0	0	0	0	0	0	0	0.0005987548828125	1.29510681152344	8.88013366699219	0.899555973291463	0.421945237583361	0.112965779758167	-0.424696911377029	0.784393900727018	0.452060551219706	0.102135128053286	-0.454629986893709	0.88480505798428
211	9.141516	0	0	0	0	0	0	0	0	0	0	0	0	0.1963916015625	1.63040954589844	9.28549072265625	0.897759629396431	0.424597518545696	0.117237345034849	-0.428850604415014	0.781750572931648	0.452717572901602	0.100572396406072	-0.4567088667476	0.883913007097001
212	9.141516	0	0	0	0	0	0	0	0	0	0	0	0	0.0233514404296875	0.963995361328125	9.13879577636719	0.897873067773084	0.424056068824014	0.118323305655629	-0.429087894805785	0.78275445837532	0.450753853477372	0.0985268120812405	-0.455490843362502	0.88477147270582
213	9.141516	0	0	0	0	0	0	0	0	0	0	0	0	-0.199385375976563	0.425115966796875	9.07113647460938	0.896116893954116	0.427024640966696	0.120931668215122	-0.433135456570819	0.782032346526953	0.448128424948402	0.0967894035068719	-0.453955245583539	0.885751910173482
214	9.141516	0	0	0	0	0	0	0	0	0	0	0	0	0.135917358398437	0.923878784179687	9.2878857421875	0.89466314611602	0.429094672392362	0.12432062220837	-0.436613453586542	0.780922265641757	0.446686811056894	0.0945861888914938	-0.453914283923118	0.88601087787992
215	9.141516	0	0	0	0	0	0	0	0	0	0	0	0	0.327518920898438	0.672401733398438	9.23459655761719	0.893541299074775	0.43091151570605	0.126092079369323	-0.439161407134999	0.780409779334389	0.445081829333056	0.0933873938547014	-0.453073770981245	0.886568075625252
216	9.141516	0	0	0	0	0	0	0	0	0	0	0	0	-0.133522338867188	0.814306640625	9.6902490234375	0.891676118791848	0.433853090569108	0.129171184789561	-0.442961154576237	0.777472189058837	0.446455384978776	0.0932690447725992	-0.45531142204396	0.885433449923547
217	9.141516	0	0	0	0	0	0	0	0	0	0	0	0	-0.0413140869140625	0.07903564453125	9.18549865722656	0.891108929218443	0.43518945860758	0.128588535196578	-0.444090614123652	0.778046590382229	0.444327615214118	0.0933188229374865	-0.453049266980346	0.886587817970748
218	9.141516	0	0	0	0	0	0	0	0	0	0	0	0	0.272433471679688	1.06398742675781	9.05018005371094	0.889245648278006	0.438325228244147	0.130817320349205	-0.447696690103431	0.775293312028129	0.445519869360377	0.0938608048605095	-0.45474308637864	0.885662957733791
219	9.141516	0	0	0	0	0	0	0	0	0	0	0	0	-0.487985229492188	0.056282958984375	10.7410638427734	0.887312109946967	0.441531947440668	0.133141875196023	-0.451502480442787	0.772918661262266	0.445805174068851	0.0939293867512875	-0.455682216530116	0.885172857606201
220	9.141516	0	0	0	0	0	0	0	0	0	0	0	0	-0.497565307617188	1.40288269042969	11.8816918945313	0.879077813476643	0.450961680277385	0.154453102184847	-0.466795780017902	0.748773668797327	0.470573790890727	0.0965603314545049	-0.485769035486196	0.868737328858504
221	9.141516	0	0	0	0	0	0	0	0	0	0	0	0	0.144299926757813	-1.65136596679687	8.73763000488281	0.874767539658217	0.453834171093772	0.169753635330554	-0.474251730318064	0.730105774639383	0.491966314018094	0.0993330149075943	-0.510862117391627	0.853904473090235
222	9.141516	0	0	0	0	0	0	0	0	0	0	0	0	-0.16525634765625	-3.08119262695313	9.31303344726563	0.869636925378329	0.458459786831046	0.183156331797071	-0.482154891586797	0.708969325599078	0.514673834460732	0.106105035401014	-0.535889092274158	0.837594533317958
223	9.141516	0	0	0	0	0	0	0	0	0	0	0	0	1.04841979980469	-2.90815246582031	7.64609985351563	0.8657571038953	0.457866782917943	0.202046148577983	-0.489091072240935	0.688487701998146	0.535513405295819	0.106087511560198	-0.562443502316176	0.82000167475029
224	9.141516	0	0	0	0	0	0	0	0	0	0	0	0	-0.473615112304688	-5.38400390625	6.85753967285156	0.862114118585465	0.457260972136831	0.218338383927534	-0.49538068761692	0.669951361001612	0.552958541147776	0.106570262605452	-0.584873984079108	0.804092781882562
225	9.141516	0	0	0	0	0	0	0	0	0	0	0	0	1.74656799316406	-6.37673950195312	4.37031188964844	0.8650289854022	0.449618862317331	0.222638121314633	-0.489803894372619	0.660637839111484	0.568902268049201	0.108706023160891	-0.601165970579321	0.791695949431325
226	9.141516	0	0	0	0	0	0	0	0	0	0	0	0	0.143701171875	-7.26169921875	4.61101135253906	0.862646069439954	0.448860907604669	0.233164415175455	-0.493816176636076	0.647592540322271	0.580318434492199	0.10948672326966	-0.615749776567773	0.780297936742378
227	9.141516	0	0	0	0	0	0	0	0	0	0	0	0	-0.0293389892578125	-8.6268603515625	2.63631774902344	0.864756304250212	0.44372843662861	0.235162940929569	-0.489778023256371	0.641723496396857	0.590176619417675	0.110968563992672	-0.625536592614152	0.772262875649271
228	9.141516	0	0	0	0	0	0	0	0	0	0	0	0	1.05141357421875	-8.10833862304688	2.51836303710938	0.866577049764685	0.439333945891317	0.23670635988224	-0.486369876720213	0.637303211360599	0.597736530428443	0.111752225214084	-0.633111602150075	0.765951133808591
229	9.141516	0	0	0	0	0	0	0	0	0	0	0	0	0.0257464599609375	-9.17112854003906	4.20026550292969	0.866628547456225	0.436383018703058	0.241919039601103	-0.486254931206933	0.629967255640007	0.605555446427773	0.111853040239657	-0.642425962900788	0.758141002439613
230	9.141516	0	0	0	0	0	0	0	0	0	0	0	0	1.03524719238281	-8.79750549316406	1.92200317382813	0.868494007024278	0.432756384827303	0.241743813062746	-0.482705404353863	0.627406903862002	0.611028697848039	0.11275483302496	-0.647365807235368	0.753792981694586
231	9.141516	0	0	0	0	0	0	0	0	0	0	0	0	0.092208251953125	-9.15795593261719	2.44351867675781	0.868058476342152	0.431670870999127	0.245223858507686	-0.483312501210194	0.621851179530845	0.616206245254008	0.11350554094179	-0.653422810779477	0.748435115777286
232	9.141516	0	0	0	0	0	0	0	0	0	0	0	0	0.388591918945313	-9.20765258789063	2.26628723144531	0.868742898962841	0.428458610608699	0.248412951548227	-0.482359664050167	0.618231101490059	0.62057993816091	0.112316205415999	-0.658948802370603	0.743755030810078
233	9.141516	0	0	0	0	0	0	0	0	0	0	0	0	1.04362976074219	-8.89929382324219	1.51425109863281	0.869740311413958	0.425415489492942	0.250146860865839	-0.480662975925948	0.615318224854538	0.624777228887123	0.111869988270156	-0.663630276178944	0.73964853968834
234	9.141516	0	0	0	0	0	0	0	0	0	0	0	0	1.34061218261719	-9.16933227539062	1.42683288574219	0.870250887945036	0.422612952627906	0.253104097758216	-0.47973354869268	0.610378600076918	0.630312372420906	0.111888847923308	-0.669952428788243	0.733924130187262
235	9.141516	0	0	0	0	0	0	0	0	0	0	0	0	0.105380859375	-9.40164916992187	2.28005859375	0.869444828472074	0.420254107044408	0.259715567025684	-0.481329529243424	0.602156372310111	0.636969063271233	0.111299481227316	-0.678818229571536	0.725822455342831
236	9.141516	0	0	0	0	0	0	0	0	0	0	0	0	0.743054809570313	-9.67827392578125	0.10298583984375	0.87022475130656	0.417030908360712	0.262286300986682	-0.479778524948467	0.596463842929946	0.64346208208061	0.111899281551355	-0.685795964955379	0.719140073448289
237	9.141516	0	0	0	0	0	0	0	0	0	0	0	0	1.07536376953125	-9.64055236816406	-0.037122802734375	0.870959047346477	0.414128187530079	0.264439373275555	-0.478504062447305	0.592585639713201	0.647978488707088	0.111643181908893	-0.690898041608708	0.714279844342895
238	9.141516	0	0	0	0	0	0	0	0	0	0	0	0	0.814905395507812	-9.60522583007813	-1.00231567382813	0.87296235158398	0.412036635766969	0.261079573124376	-0.474682959937135	0.59435493684608	0.64916738719071	0.112306813071554	-0.690628713443433	0.714436253213106
239	9.141516	0	0	0	0	0	0	0	0	0	0	0	0	0.335901489257812	-9.90460327148438	1.06638244628906	0.875203562835979	0.41007946235905	0.256619481237339	-0.470573946675969	0.598708871156598	0.648157271276188	0.11215562540065	-0.68802799517876	0.71696484819082
240	9.141516	0	0	0	0	0	0	0	0	0	0	0	0	0.870589599609375	-8.88612121582031	-0.510737915039063	0.876260630460317	0.411643079741182	0.250434187774918	-0.468370639923332	0.605663000182265	0.643273871588165	0.11312051610162	-0.680971589063313	0.723520175064587
241	9.141516	0	0	0	0	0	0	0	0	0	0	0	0	0.199984130859375	-9.34356994628906	2.65607666015625	0.878623807579449	0.412586679361264	0.240400575640405	-0.463831877707305	0.617750961506352	0.635014754773851	0.11349094226901	-0.669444532109736	0.734141556139733
242	9.141516	0	0	0	0	0	0	0	0	0	0	0	0	0.405357055664062	-8.24665100097656	3.35123107910156	0.879518087617999	0.412134537692196	0.237892951543375	-0.462565194581123	0.623070877543567	0.63072666212807	0.111720071226734	-0.664776507104703	0.738641199288778
243	9.141516	0	0	0	0	0	0	0	0	0	0	0	0	0.428109741210938	-7.63352600097656	3.55301147460938	0.883015109122033	0.409954334797416	0.228520809649831	-0.455860505980186	0.633250945996186	0.625447390659219	0.111693850097909	-0.656453107827014	0.746052143669973
244	9.141516	0	0	0	0	0	0	0	0	0	0	0	0	0.0233514404296875	-6.81981811523438	5.35705993652344	0.883026371217798	0.409927202733743	0.228525963935867	-0.456694036945116	0.638318955214768	0.61966076851153	0.108143350940782	-0.651543244821414	0.750863779772925
245	9.141516	0	0	0	0	0	0	0	0	0	0	0	0	-0.860410766601563	-6.84376831054688	7.77782592773438	0.883137569181455	0.411050532520687	0.226065241942965	-0.456852361692308	0.644144045128853	0.613485426673853	0.106554931919793	-0.645070468119181	0.756657212774761
246	9.141516	0	0	0	0	0	0	0	0	0	0	0	0	-0.379011840820313	-6.44320129394531	7.09045532226563	0.88336073426232	0.411401428672791	0.224549944666042	-0.456811153359402	0.648526213651147	0.608882025004647	0.104868409590251	-0.640439391896917	0.760815353404963
247	9.141516	0	0	0	0	0	0	0	0	0	0	0	0	0.337098999023438	-5.91450073242188	5.18521728515625	0.884683391665056	0.412508233487919	0.217191744356664	-0.45401183144891	0.656554734535831	0.602336398919235	0.105870455824184	-0.631484629950137	0.768126687936514
248	9.141516	0	0	0	0	0	0	0	0	0	0	0	0	-0.540076904296875	-5.40376281738281	7.99996398925781	0.884381351028757	0.413119531655568	0.217259933069202	-0.455112106133439	0.659841163203054	0.597898494891587	0.103646499233382	-0.627647904407817	0.771566919514529
249	9.141516	0	0	0	0	0	0	0	0	0	0	0	0	-0.477207641601563	-4.95110412597656	7.77962219238281	0.883783422223418	0.415242267169616	0.215640260987835	-0.456421728332051	0.663654051804874	0.592657156735121	0.102985768480153	-0.622203470802607	0.776052042334624
250	9.141516	0	0	0	0	0	0	0	0	0	0	0	0	0.070653076171875	-5.02295471191406	7.47066467285156	0.884731396300538	0.41562245177406	0.210969983602927	-0.454496316063199	0.668899880607341	0.588222788073078	0.103360800524575	-0.616304248975134	0.780695598559461
251	9.141516	0	0	0	0	0	0	0	0	0	0	0	0	0.566422119140625	-3.7697607421875	6.07257202148438	0.884636922190152	0.418707297933441	0.205187023359697	-0.454591920347925	0.676554686135689	0.579327146457186	0.103748261924343	-0.605770546762648	0.788846209867653
252	9.141516	0	0	0	0	0	0	0	0	0	0	0	0	-0.204175415039063	-3.16681457519531	7.65508117675781	0.885342824240701	0.422220518483555	0.194673874305151	-0.453206035862151	0.690239252369317	0.564069201026578	0.103790041061821	-0.58762199436383	0.802451256536035
253	9.141516	0	0	0	0	0	0	0	0	0	0	0	0	-0.513731689453125	-2.30700256347656	10.3333117675781	0.886467172995226	0.42570653447585	0.181521066839126	-0.450618166513458	0.704612211579209	0.54814678627308	0.105447708414653	-0.56771082233653	0.816446693294841
254	9.141516	0	0	0	0	0	0	0	0	0	0	0	0	0.522713012695313	-0.881965942382813	8.99988464355469	0.886341646268021	0.43039671135572	0.170754668882218	-0.450520421644558	0.71646222499718	0.532647378509741	0.106910410026827	-0.549036019771263	0.82893281586726
255	9.141516	0	0	0	0	0	0	0	0	0	0	0	0	0.101189575195313	0.556243286132812	9.86867797851563	0.884208871543465	0.435906797733049	0.167809222553323	-0.454997546452472	0.722585377201935	0.520430211821113	0.105602576701818	-0.536521794845332	0.837252924420023
256	9.141516	0	0	0	0	0	0	0	0	0	0	0	0	0.405357055664062	0.188009033203125	9.90639953613281	0.883590020733248	0.438620317903952	0.163953932500733	-0.456230758380405	0.727537466867038	0.512389236237779	0.105461700954705	-0.527542842835091	0.842956925711635
257	9.141516	0	0	0	0	0	0	0	0	0	0	0	0	0.926273803710938	1.13404174804687	9.33039733886719	0.882242369217947	0.440772578300917	0.165432572895022	-0.459295089815324	0.728611874293875	0.508107033123437	0.103423510036347	-0.524255921145322	0.845256947156208
258	9.141516	0	0	0	0	0	0	0	0	0	0	0	0	-0.437689819335938	0.824485473632813	9.30524963378906	0.880386421885959	0.443635177220246	0.167653146977923	-0.463067007077551	0.727771466720726	0.505883029151407	0.10241433061383	-0.523007190925636	0.846152931286654
259	9.141516	0	0	0	0	0	0	0	0	0	0	0	0	0.0928070068359375	0.619711303710938	9.49924621582031	0.878611578631784	0.446287284041235	0.16990984078994	-0.466630000185707	0.726750281390099	0.504073874968838	0.101479736010947	-0.522170172072774	0.846782247438288
260	9.141516	0	0	0	0	0	0	0	0	0	0	0	0	-0.04071533203125	0.92208251953125	9.65552124023437	0.876378505071365	0.449408551467224	0.173183918759829	-0.470863086501286	0.723906923709853	0.504228836517131	0.101235713161723	-0.523441228480398	0.846026365255581
261	9.141516	0	0	0	0	0	0	0	0	0	0	0	0	0.168250122070313	0.744252319335937	8.94599670410156	0.874849317437038	0.451034354492385	0.176654133400797	-0.473987535924878	0.721903597746961	0.504173592473721	0.099872356374585	-0.524807780647002	0.845341532047584
262	9.141516	0	0	0	0	0	0	0	0	0	0	0	0	-0.286204833984375	-0.334703979492187	9.81	0.87264962336297	0.453605271482135	0.180900228104021	-0.477972483282897	0.717399525484006	0.506833528941904	0.100124622690168	-0.528753419392198	0.84284926375492
263	9.141516	0	0	0	0	0	0	0	0	0	0	0	0	-0.115559692382813	0.5508544921875	11.1655810546875	0.868450640024492	0.456606681383135	0.193141979790339	-0.48570910725348	0.705491271098512	0.516109222485738	0.0993989384856731	-0.542026203167417	0.834462369497772
264	9.141516	0	0	0	0	0	0	0	0	0	0	0	0	0.130528564453125	-1.31905700683594	8.27598999023438	0.867861988156399	0.456633270234468	0.195708012171697	-0.486519730192818	0.701426629183663	0.520863932332765	0.100568989486467	-0.547253817151621	0.830902604380713
265	9.141516	0	0	0	0	0	0	0	0	0	0	0	0	-0.4981640625	-1.66094604492188	10.1686541748047	0.864681588601637	0.458899589985676	0.204296149362458	-0.491944237300379	0.691383881605387	0.529130603578376	0.101570752287741	-0.558031804261412	0.823579921873072
266	9.141516	0	0	0	0	0	0	0	0	0	0	0	0	-0.032332763671875	-3.05963745117188	8.78433288574219	0.861375194472481	0.458636802773395	0.218369085470666	-0.4976233477749	0.675560914714524	0.544048209499284	0.101998912233405	-0.577295187622307	0.810139795499103
267	9.141516	0	0	0	0	0	0	0	0	0	0	0	0	-0.604143676757813	-2.17767150878906	10.2261346435547	0.854242744818241	0.459808525059119	0.242580817890362	-0.509781451724383	0.649377682350648	0.564297348162015	0.101942162048781	-0.605710117092211	0.78912803121481
268	9.141516	0	0	0	0	0	0	0	0	0	0	0	0	0.810115356445313	-4.25295593261719	6.06838073730469	0.851440981734789	0.456773863823278	0.257693406882003	-0.514594019120182	0.632818085338966	0.578562240691235	0.101199061795245	-0.625219088157006	0.773860350254414
269	9.141516	0	0	0	0	0	0	0	0	0	0	0	0	-0.610131225585938	-5.441484375	6.16657653808594	0.849013024859714	0.45541758825511	0.267902414932114	-0.518304397153856	0.619336755929477	0.589730900195784	0.102652011716951	-0.639544215095916	0.761869911092315
270	9.141516	0	0	0	0	0	0	0	0	0	0	0	0	0.113164672851563	-5.73247924804688	5.99114135742188	0.848756719776726	0.44742469279857	0.281821175407308	-0.51956848716121	0.606586268807643	0.601748855954902	0.0982884417562095	-0.65716378686605	0.747311942530701
271	9.141516	0	0	0	0	0	0	0	0	0	0	0	0	-0.641865234375	-7.34253112792969	6.294111328125	0.848769176257353	0.442057936027073	0.290130430377267	-0.519745837076077	0.596585002187359	0.611515003910122	0.0972375970368545	-0.669829169535481	0.73612073287057
272	9.141516	0	0	0	0	0	0	0	0	0	0	0	0	-0.59156982421875	-8.38616088867188	3.51888244628906	0.848568723941927	0.437483287264082	0.297555867211827	-0.520284077093636	0.587829414998282	0.619484509883502	0.0961020284405788	-0.680488759809735	0.726429244938704
273	9.141516	0	0	0	0	0	0	0	0	0	0	0	0	-0.166453857421875	-8.12450500488281	3.73383544921875	0.847812504354161	0.431883360126589	0.307718573873096	-0.521919645946392	0.576837713487197	0.628377383006466	0.0938820570498872	-0.693350571893201	0.714458636884917
274	9.141516	0	0	0	0	0	0	0	0	0	0	0	0	-0.5795947265625	-8.42627746582031	3.78173583984375	0.846300121056081	0.428549214355543	0.316420094140225	-0.524685323284395	0.567887651035189	0.634199438135737	0.0920946069561718	-0.702744040655616	0.705456870894746
275	9.141516	0	0	0	0	0	0	0	0	0	0	0	0	-0.549058227539063	-8.53165832519531	2.74708740234375	0.845754785813135	0.424848854887231	0.322803799195715	-0.525764939418685	0.560455481431815	0.639891304684709	0.0909399293613415	-0.71091005326556	0.697378538108045
276	9.141516	0	0	0	0	0	0	0	0	0	0	0	0	-0.47660888671875	-9.13580200195313	2.13815368652344	0.845894418827862	0.42175740145549	0.326471019408136	-0.525598487037623	0.555203009353671	0.644589674776435	0.0906027737965911	-0.71684748219	0.691318179030628
277	9.141516	0	0	0	0	0	0	0	0	0	0	0	0	-0.58677978515625	-9.47589477539062	1.89745422363281	0.84635468836296	0.417915387979186	0.330197622608407	-0.524909040168455	0.549364038210126	0.65013048926419	0.0903008362944048	-0.723564704785737	0.68432439453293
278	9.141516	0	0	0	0	0	0	0	0	0	0	0	0	-0.412542114257813	-9.2687255859375	1.60346557617188	0.846272771507939	0.416591185905559	0.332075563735232	-0.524970672830272	0.545960898410228	0.652941413968535	0.0907093648550343	-0.726896472156041	0.68072999779259
279	9.141516	0	0	0	0	0	0	0	0	0	0	0	0	-0.520916748046875	-9.45673461914063	1.47473327636719	0.846709908862098	0.415211963405778	0.332688075649636	-0.524165338129895	0.54368683063787	0.655480990185162	0.091285423468982	-0.729385807125192	0.677984746013081
280	9.141516	0	0	0	0	0	0	0	0	0	0	0	0	-0.428109741210938	-9.54115905761719	0.958606567382813	0.847478897960292	0.414622494163705	0.331462976583325	-0.522766815345212	0.543483561234776	0.656765160039257	0.0921649298043174	-0.729872458722094	0.677341730379231
281	9.141516	0	0	0	0	0	0	0	0	0	0	0	0	0.11256591796875	-9.40105041503906	0.62510009765625	0.85085301016008	0.415918259900583	0.321031394388153	-0.516682545498516	0.551501799620189	0.654893054011774	0.0953325877059111	-0.723089044376254	0.684144671560285
282	9.141516	0	0	0	0	0	0	0	0	0	0	0	0	0.077838134765625	-9.47649353027344	2.41238342285156	0.854580371048614	0.418677022385715	0.307248987540471	-0.509974287525414	0.564836151106517	0.648757542126581	0.098074540434098	-0.711104544584977	0.696212403788696
283	9.141516	0	0	0	0	0	0	0	0	0	0	0	0	-0.14609619140625	-8.54123840332031	4.19367919921875	0.855578865266948	0.420083245428709	0.302514251265299	-0.508237743303274	0.570575994881626	0.645087149420013	0.0983829334311457	-0.70567209167922	0.701674922905584
284	9.141516	0	0	0	0	0	0	0	0	0	0	0	0	0.11256591796875	-7.75207946777344	3.30931823730469	0.85742090989522	0.421708057690105	0.294943549435637	-0.505061916485671	0.579655428083428	0.639462309451651	0.0987007790763245	-0.697253109546782	0.709997364387411
285	9.141516	0	0	0	0	0	0	0	0	0	0	0	0	-0.486787719726563	-7.75567199707031	5.69296142578125	0.861061721697109	0.422956736490903	0.282277010195616	-0.498601430376426	0.593265258895097	0.632007077661886	0.0998465074731883	-0.684940823462216	0.721724839049002
286	9.141516	0	0	0	0	0	0	0	0	0	0	0	0	0.2059716796875	-6.93657531738281	5.79355224609375	0.861725208471058	0.423024531809299	0.28014266110865	-0.497707594216151	0.597503171006987	0.628710673757148	0.098573910062872	-0.681204966309054	0.725426066619334
287	9.141516	0	0	0	0	0	0	0	0	0	0	0	0	-0.0963995361328125	-6.67372192382813	5.86181030273438	0.862236906954212	0.423710708861732	0.277518920944	-0.496875755853773	0.60125019556459	0.625789649625403	0.0982954705506597	-0.677471355504741	0.728951687658238
288	9.141516	0	0	0	0	0	0	0	0	0	0	0	0	-0.424517211914062	-6.53241577148438	6.23962463378906	0.863418210754255	0.424431149579672	0.272703488434597	-0.494820198389798	0.607157815071435	0.621701181326819	0.0982952928852733	-0.671727315853806	0.734248219972265
289	9.141516	0	0	0	0	0	0	0	0	0	0	0	0	-0.219144287109375	-6.11568237304688	7.26409423828125	0.863880234264839	0.425373033335286	0.26975678556371	-0.494122803536007	0.611756331672651	0.617735255335276	0.097742497779853	-0.66694225624829	0.738670718898615
290	9.141516	0	0	0	0	0	0	0	0	0	0	0	0	-0.274828491210937	-6.06059692382813	7.07608520507813	0.865937188227446	0.425595900284908	0.262718320079556	-0.490493316882403	0.61988719879654	0.612499932132141	0.0978217365335747	-0.659248049241602	0.745535322726361
291	9.141516	0	0	0	0	0	0	0	0	0	0	0	0	0.341290283203125	-5.15468078613281	7.24912536621094	0.866277156199752	0.42622327715225	0.260571691977595	-0.490085131718067	0.623951734628656	0.608687766036722	0.0968527351981092	-0.654994618960711	0.749400825204482
292	9.141516	0	0	0	0	0	0	0	0	0	0	0	0	-0.468226318359375	-5.25048156738281	8.23527465820313	0.867114789995592	0.427396669931429	0.255820303147397	-0.488649456008459	0.630277783224958	0.603300609245234	0.0966108177873372	-0.648137333058788	0.755370337901816
293	9.141516	0	0	0	0	0	0	0	0	0	0	0	0	0.671204223632813	-4.02004028320312	7.39522155761719	0.86752895171191	0.427909199756594	0.253549274708697	-0.488129847926284	0.63456807652684	0.599209986412518	0.0955131902152668	-0.643596980273135	0.759381430822616
294	9.141516	0	0	0	0	0	0	0	0	0	0	0	0	-0.752634887695313	-4.02542907714844	8.70769226074219	0.865776345354956	0.430587626300243	0.255001207646039	-0.491464999584184	0.635569711110489	0.595410191802801	0.094305217286922	-0.640816228255849	0.761879969284148
295	9.141516	0	0	0	0	0	0	0	0	0	0	0	0	0.193397827148438	-3.60510314941406	8.20773193359375	0.865550166548086	0.431646195990067	0.253977303466049	-0.492124680112245	0.638940809334544	0.591242709376902	0.0929312025801978	-0.636738724795519	0.765459070057162
296	9.141516	0	0	0	0	0	0	0	0	0	0	0	0	0.141904907226563	-3.26081909179688	7.77183837890625	0.86619596182537	0.434287934176859	0.247181200631881	-0.490862596803632	0.646840682121587	0.583653187271067	0.0935866805513321	-0.626890039943909	0.773466489928624
297	9.141516	0	0	0	0	0	0	0	0	0	0	0	0	0.216749267578125	-2.05612426757813	9.33279235839844	0.86536075850022	0.43737748760807	0.244646052454516	-0.492465348522461	0.651670687928612	0.576890973234372	0.09289046319497	-0.619698513656683	0.77932349766905
298	9.141516	0	0	0	0	0	0	0	0	0	0	0	0	0.13412109375	-1.80344970703125	9.37530395507813	0.86428722952209	0.440678864535531	0.242507161207058	-0.494442939286657	0.655781147340635	0.570506149469199	0.0923783777439398	-0.612987132935329	0.78467382407031
299	9.141516	0	0	0	0	0	0	0	0	0	0	0	0	-0.1868115234375	-2.1986279296875	8.39394470214844	0.864779350360029	0.442332263781083	0.237694853981295	-0.493658114652172	0.662181130025457	0.563753329813911	0.0919692395801415	-0.604862231798707	0.791001478832081
300	9.141516	0	0	0	0	0	0	0	0	0	0	0	0	0.459244995117188	-0.748443603515625	8.72086486816406	0.864428156338114	0.444852365319541	0.23424417943569	-0.494479759237455	0.66808412951081	0.556015614529171	0.0908500425666329	-0.59646455801279	0.797481222851202
301	9.141516	0	0	0	0	0	0	0	0	0	0	0	0	0.13172607421875	-0.15328125	9.27112060546875	0.864124893027469	0.447681334279802	0.229933886558118	-0.495023831309816	0.673658251102741	0.548758569096235	0.0907721085224796	-0.588018693290147	0.803737793472306
302	9.141516	0	0	0	0	0	0	0	0	0	0	0	0	0.56282958984375	0.15567626953125	8.87354736328125	0.864421121737793	0.448891513091951	0.226434391750891	-0.494684300454409	0.678939844652575	0.5425201657331	0.0897973673194771	-0.580979428910488	0.808949526240874
303	9.141516	0	0	0	0	0	0	0	0	0	0	0	0	0.144898681640625	0.370629272460938	9.52080139160156	0.863247367700054	0.452552790439422	0.223606694945436	-0.496686870435083	0.682508786004497	0.536175260305873	0.0900340763063192	-0.573914391605717	0.813950942140562
304	9.141516	0	0	0	0	0	0	0	0	0	0	0	0	0.3879931640625	0.819695434570313	8.51788696289062	0.862763717037844	0.454833531922625	0.220828500882097	-0.497578781715443	0.686275448968493	0.53051047504236	0.0897447744975659	-0.56758476581202	0.818409071961263
305	9.141516	0	0	0	0	0	0	0	0	0	0	0	0	0.633482666015625	1.21367614746094	9.45493835449219	0.861427207647781	0.457767744823264	0.219981494047953	-0.499884315933279	0.687644553522103	0.52655544693347	0.0897710232094111	-0.56355448699377	0.821186643572047
306	9.141516	0	0	0	0	0	0	0	0	0	0	0	0	0.197589111328125	1.12506042480469	9.05137756347656	0.860677565778541	0.459597397998668	0.219098971970159	-0.501302964071026	0.689676807529555	0.522533481577445	0.0890475489787916	-0.559567809035416	0.823986893774515
307	9.141516	0	0	0	0	0	0	0	0	0	0	0	0	1.12925170898437	1.82440612792969	9.38668029785156	0.859546318910396	0.461365239772975	0.219823204363902	-0.503405265933828	0.690191557873741	0.519825693545357	0.0881093858659874	-0.557474420013191	0.825505304133944
308	9.141516	0	0	0	0	0	0	0	0	0	0	0	0	0.04550537109375	1.73818542480469	9.9105908203125	0.857983960797876	0.463657338353353	0.221100419729756	-0.506211557460129	0.690069816390253	0.517255746803178	0.0872546967640169	-0.555720722214141	0.826777537669241
309	9.141516	0	0	0	0	0	0	0	0	0	0	0	0	0.525706787109375	1.44838806152344	8.7130810546875	0.856824675311911	0.465644415095353	0.221419860146159	-0.508258787305693	0.690521179868829	0.514639199127998	0.0867437657885802	-0.553494154298912	0.82832345146914
310	9.141516	0	0	0	0	0	0	0	0	0	0	0	0	0.509540405273438	1.63280456542969	9.8147900390625	0.854773618162234	0.468272213493069	0.223792751813249	-0.511753552298474	0.688646469035577	0.513687008201225	0.0864312640410709	-0.553612838322175	0.828276802669934
311	9.141516	0	0	0	0	0	0	0	0	0	0	0	0	0.444874877929687	1.03225341796875	9.27890441894531	0.8532556449764	0.470305613477744	0.225316298228138	-0.514270673654758	0.687189915667935	0.513123468595014	0.0864897597094004	-0.553699060623747	0.828213059381335
312	9.141516	0	0	0	0	0	0	0	0	0	0	0	0	0.631087646484375	1.32025451660156	9.71599548339844	0.851041899317781	0.471914028299137	0.230271221606315	-0.517979808842255	0.68251669829364	0.515623771932684	0.0861661374167629	-0.558093277548502	0.825292245400286
313	9.141516	0	0	0	0	0	0	0	0	0	0	0	0	0.293988647460938	0.56761962890625	9.76090209960937	0.849597142781947	0.472791574638259	0.233779430078499	-0.520450759679221	0.679621508351091	0.516958037113178	0.0855318754972346	-0.56087675325125	0.823469225858661
314	9.141516	0	0	0	0	0	0	0	0	0	0	0	0	0.95082275390625	1.29690307617188	8.11073364257813	0.844547144416731	0.474509778586748	0.248154369059063	-0.529051153646224	0.667796821847759	0.523595532406105	0.0827345011657532	-0.573487466955982	0.815025844719826
315	9.141516	0	0	0	0	0	0	0	0	0	0	0	0	-0.492775268554688	-0.925675048828125	11.3769415283203	0.843040238975832	0.475207147294859	0.251915308442053	-0.531533450180448	0.664529237239806	0.525236217518128	0.082190916814704	-0.576696679384721	0.812813381521119
316	9.141516	0	0	0	0	0	0	0	0	0	0	0	0	0.710722045898438	-0.701141967773438	7.81914001464844	0.839855695025183	0.476259094430549	0.260422131367439	-0.536604304341735	0.656124532984413	0.530618900697957	0.0818427278118754	-0.585386942276798	0.806612605726028
317	9.141516	0	0	0	0	0	0	0	0	0	0	0	0	-0.175435180664062	-2.56446716308594	10.1447039794922	0.834996562960168	0.476245393731816	0.275628490533788	-0.544395009680893	0.642082171818654	0.539781954188153	0.0800925294846344	-0.600766851267501	0.795402022337689
318	9.141516	0	0	0	0	0	0	0	0	0	0	0	0	1.00351318359375	-2.76505004882813	7.38085144042969	0.831879442191775	0.476051906671787	0.285221275175709	-0.549252236737202	0.632767192989359	0.545827500145923	0.0793635564845823	-0.610721099709617	0.787858594083732
319	9.141516	0	0	0	0	0	0	0	0	0	0	0	0	-0.15328125	-4.2200244140625	7.91613830566406	0.830018664800241	0.475372869974136	0.291701303692286	-0.551997985246129	0.625342365666743	0.551584218398728	0.0797949896136369	-0.618843728412008	0.781450701860127
320	9.141516	0	0	0	0	0	0	0	0	0	0	0	0	-0.164058837890625	-4.16553771972656	7.30720458984375	0.827094398696964	0.474225403514497	0.301703699522596	-0.556448627552407	0.615187456178398	0.558488423027545	0.0792450663394949	-0.629805255950015	0.772700174089915
321	9.141516	0	0	0	0	0	0	0	0	0	0	0	0	-0.484991455078125	-5.54926025390625	7.77842468261719	0.824725901533032	0.473095118187248	0.30985189443978	-0.559860586673709	0.605599299874588	0.565513582048017	0.0798956245979552	-0.639867562186741	0.764320738977623
322	9.141516	0	0	0	0	0	0	0	0	0	0	0	0	0.4167333984375	-5.8390576171875	5.93605590820313	0.822972392604963	0.472095261359915	0.315978646765215	-0.562297850397073	0.597788579223	0.57137548248886	0.0808552314256415	-0.647900361747128	0.757421647960399
323	9.141516	0	0	0	0	0	0	0	0	0	0	0	0	0.3017724609375	-5.95761108398438	6.03305419921875	0.82092860457729	0.470811251135384	0.323129992404168	-0.565215455866655	0.589403904668737	0.577178070971773	0.081287850483532	-0.65646005435638	0.749968320929748
324	9.141516	0	0	0	0	0	0	0	0	0	0	0	0	-0.0904119873046875	-6.57253234863281	6.06059692382813	0.81997168398064	0.468670305936096	0.328625290876584	-0.566632897094009	0.583283559661755	0.58198578071905	0.081077724442682	-0.663421761296747	0.743840015888577
325	9.141516	0	0	0	0	0	0	0	0	0	0	0	0	-0.243693237304688	-7.51976257324219	5.30077697753906	0.819368920705273	0.466381570115896	0.333350870463103	-0.56743059423696	0.577050302109618	0.587397199141338	0.0815910075079787	-0.670448491602025	0.737456254704238
326	9.141516	0	0	0	0	0	0	0	0	0	0	0	0	0.0808319091796875	-7.47605346679688	5.31394958496094	0.818381217017248	0.464132925349462	0.338869903119057	-0.568779981528893	0.569929797014831	0.593017165929137	0.0821067369060584	-0.678056527201961	0.730409357602609
327	9.141516	0	0	0	0	0	0	0	0	0	0	0	0	-0.0640667724609375	-7.51018249511719	4.77447143554688	0.816399490615906	0.461119643247057	0.347650034278434	-0.571579690098277	0.559329642727936	0.600372391631225	0.0823925335770617	-0.688853413563108	0.720203058194845
328	9.141516	0	0	0	0	0	0	0	0	0	0	0	0	0.156873779296875	-8.31610656738281	4.65472045898438	0.81606623855912	0.456010565858192	0.355091900935041	-0.572049354046851	0.549664577266005	0.608792566506495	0.0824344031248462	-0.699945152368867	0.709423253676375
329	9.141516	0	0	0	0	0	0	0	0	0	0	0	0	0.308358764648438	-8.66637817382813	3.08059387207031	0.814734113552126	0.452370607986158	0.362724630049664	-0.573863505179734	0.539540475784581	0.616098005525889	0.0830000098630234	-0.71011049000869	0.699181014003067
330	9.141516	0	0	0	0	0	0	0	0	0	0	0	0	0.225730590820313	-9.28010192871094	2.50339416503906	0.814015228104245	0.448554665764682	0.369022926435645	-0.574756851771794	0.530299723725544	0.623246952947215	0.0838675727308799	-0.719430965998369	0.689481918114525
331	9.141516	0	0	0	0	0	0	0	0	0	0	0	0	0.488583984375	-8.86935607910156	1.44060424804688	0.812411106679858	0.443489961294727	0.378556267910083	-0.577140438024439	0.519144007860141	0.630395442480249	0.0830488322625202	-0.73062038934984	0.677714348472954
332	9.141516	0	0	0	0	0	0	0	0	0	0	0	0	0.73527099609375	-9.18669616699219	1.15559692382812	0.811681849811263	0.439916724761259	0.384247120955112	-0.578074960423687	0.510773201457314	0.636349021217287	0.0836774450979433	-0.738636589906276	0.668890180248977
333	9.141516	0	0	0	0	0	0	0	0	0	0	0	0	0.744252319335937	-8.9909033203125	1.52622619628906	0.8101561844646	0.434306653514652	0.393731745591672	-0.580333662772423	0.499302006931864	0.643358644713006	0.0828238892283201	-0.749716770912	0.656555379832028
334	9.141516	0	0	0	0	0	0	0	0	0	0	0	0	1.03584594726562	-9.00946472167969	-1.29151428222656	0.809244952313593	0.429030398658019	0.401317236338427	-0.581626594798637	0.488989685048563	0.650076604823654	0.0826626359240573	-0.759487988676219	0.645247924195528
335	9.141516	0	0	0	0	0	0	0	0	0	0	0	0	1.15200439453125	-9.16873352050781	-2.04175415039062	0.80904651531295	0.424855444617314	0.40613001272868	-0.581885265146226	0.481667092173951	0.65529104260809	0.0827845049854107	-0.766482004678333	0.63690820550422
336	9.141516	0	0	0	0	0	0	0	0	0	0	0	0	0.464035034179688	-9.88244934082031	-0.647852783203125	0.809701438247253	0.420151718289228	0.409702470725939	-0.581057745095632	0.476213804988194	0.659994173309921	0.0821917134795785	-0.772459025163973	0.629723412839332
337	9.141516	0	0	0	0	0	0	0	0	0	0	0	0	1.45736938476563	-9.76629089355469	-3.57277038574219	0.812025061446895	0.417490148353698	0.407820151058987	-0.577814804573865	0.476761073169478	0.662441643260411	0.0821300870414351	-0.77356373695895	0.628373928218439
338	9.141516	0	0	0	0	0	0	0	0	0	0	0	0	0.491577758789063	-9.97884887695313	-1.62502075195313	0.813254979991264	0.414256133502907	0.408666359484888	-0.576171615495898	0.474881489061547	0.66521713811622	0.0815021902543493	-0.776453106891788	0.624882361554425
339	9.141516	0	0	0	0	0	0	0	0	0	0	0	0	0.847238159179688	-9.62258972167969	-2.02678527832031	0.815415895221999	0.412068444750905	0.406566740720238	-0.573179129131296	0.476448311210389	0.666680352697646	0.081009899071634	-0.776657327001644	0.62469255851744
340	9.141516	0	0	0	0	0	0	0	0	0	0	0	0	0.619711303710938	-9.77467346191406	-1.00231567382813	0.816081359160539	0.409105368336401	0.408220544349528	-0.572368110904456	0.474294965826245	0.668908836099169	0.0800372466439929	-0.779536453920032	0.621222147190061
341	9.141516	0	0	0	0	0	0	0	0	0	0	0	0	0.96040283203125	-9.72018676757813	-2.040556640625	0.817493818531146	0.407129423867865	0.407368983704438	-0.570285401062634	0.473365374018526	0.671341778839312	0.080488620302479	-0.781134338575204	0.619153233941713
342	9.141516	0	0	0	0	0	0	0	0	0	0	0	0	0.707129516601563	-10.0716558837891	-1.48072082519531	0.818579621800354	0.404849024659924	0.407461249697561	-0.568690181435826	0.471516866551537	0.673990594961018	0.0807395833013625	-0.78343417833876	0.616207763582215
343	9.141516	0	0	0	0	0	0	0	0	0	0	0	0	1.31666198730469	-9.5561279296875	-2.93389892578125	0.820153754109487	0.403245341767708	0.405883005264769	-0.56639529854025	0.471931313512314	0.675630965185909	0.08089613965831	-0.784011498429192	0.615452504194432
344	9.141516	0	0	0	0	0	0	0	0	0	0	0	0	0.867595825195313	-9.14358581542969	-2.46088256835937	0.821177931095206	0.401689236729488	0.405354860064461	-0.565126693473416	0.473616631973445	0.675513957103726	0.0793638822513144	-0.783794005471981	0.615928836133029
345	9.141516	0	0	0	0	0	0	0	0	0	0	0	0	0.911903686523438	-9.16873352050781	-1.95074340820313	0.827405002097284	0.402174226926051	0.391990884716503	-0.55620648071058	0.490268323709465	0.671022593943499	0.0776872790097903	-0.773235321207939	0.629342374798099
346	9.141516	0	0	0	0	0	0	0	0	0	0	0	0	0.0353265380859375	-8.63703918457031	2.33634155273438	0.825772261911164	0.401468609922852	0.396135237898288	-0.55904703404415	0.489722207839256	0.669057974226064	0.074609551563859	-0.77394774655377	0.62883885091475
347	9.141516	0	0	0	0	0	0	0	0	0	0	0	0	0.6562353515625	-9.25675048828125	0.417332153320313	0.831634478059002	0.400661453065745	0.384518523521011	-0.55056459181666	0.504421275568865	0.665159986011812	0.0725446424023584	-0.764872261740956	0.64008413359338
348	9.141516	0	0	0	0	0	0	0	0	0	0	0	0	-0.460442504882813	-9.66450256347656	3.09556274414063	0.832542782614426	0.400924273952894	0.382272470460502	-0.549348067122227	0.508661363088448	0.662933117931271	0.0713387430902953	-0.761920825451272	0.643729321592507
349	9.141516	0	0	0	0	0	0	0	0	0	0	0	0	0.0664617919921875	-9.22441772460938	2.24054077148438	0.833404468861838	0.401515924765355	0.379765655952378	-0.548164634630775	0.513048488895268	0.660527653760531	0.0703741758120621	-0.758660800491303	0.647673733585568
350	9.141516	0	0	0	0	0	0	0	0	0	0	0	0	0.322728881835938	-8.97713195800781	2.21838684082031	0.835801916780524	0.401917522023642	0.374028690605917	-0.544526070701093	0.519734729408704	0.65830628841998	0.0701891318711809	-0.753882030915206	0.653249852070656
351	9.141516	0	0	0	0	0	0	0	0	0	0	0	0	0.222138061523438	-8.593330078125	2.64050903320313	0.836638264907092	0.401867836601662	0.372207812382211	-0.543420753567839	0.523631263368699	0.656128176970524	0.0687771639791402	-0.75120738942585	0.656473274236649
352	9.141516	0	0	0	0	0	0	0	0	0	0	0	0	-0.166453857421875	-8.79810424804688	2.71535339355469	0.838869656386475	0.402033635628057	0.36696955652714	-0.540055668148744	0.530362888056974	0.653494515870087	0.0680997422495269	-0.746380709018898	0.662025877371871
353	9.141516	0	0	0	0	0	0	0	0	0	0	0	0	-0.24189697265625	-8.45980773925781	4.17751281738281	0.839678552257167	0.402025937869015	0.365123368411072	-0.538974033276528	0.534327469466142	0.651153704456591	0.0666852332450027	-0.743551814371029	0.665344857207607
354	9.141516	0	0	0	0	0	0	0	0	0	0	0	0	-0.185015258789062	-8.08977722167969	4.25894348144531	0.841001928109649	0.403132978861007	0.360831758954925	-0.536973006567861	0.540401919415611	0.647785269753332	0.0661494303325889	-0.738545575334776	0.670950583888336
355	9.141516	0	0	0	0	0	0	0	0	0	0	0	0	-0.185614013671875	-7.81015869140625	4.59244995117187	0.842574757095967	0.403754117741558	0.356441287046562	-0.53463291093381	0.547048444469018	0.644131702333047	0.0650801755614902	-0.733294355501775	0.676789449487891
356	9.141516	0	0	0	0	0	0	0	0	0	0	0	0	-0.310753784179688	-7.41857299804688	5.35406616210938	0.8430085659753	0.40585236478814	0.353016169159634	-0.533985954367508	0.55240306516114	0.640085817792271	0.0647731289231179	-0.728103503354058	0.682399978145557
357	9.141516	0	0	0	0	0	0	0	0	0	0	0	0	-0.129929809570312	-7.13775695800781	6.05999816894531	0.844400328064059	0.406337592145282	0.349110078878976	-0.531988983133942	0.559322172715708	0.635725120577042	0.0630540069260034	-0.722529216238454	0.688458948589109
358	9.141516	0	0	0	0	0	0	0	0	0	0	0	0	-0.528101806640625	-6.77850402832031	5.96778991699219	0.847026730474158	0.409002433007819	0.339503648958215	-0.52772553910465	0.570574254084127	0.629246196613893	0.0636511841128255	-0.712153094755635	0.699132674383774
359	9.141516	0	0	0	0	0	0	0	0	0	0	0	0	-0.0592767333984375	-5.76840454101563	6.69767211914063	0.848508462587821	0.412318364692341	0.331703112819711	-0.525303252345876	0.580527763738124	0.622128610983339	0.0639521851987664	-0.702126115214815	0.709174898273801
360	9.141516	0	0	0	0	0	0	0	0	0	0	0	0	0.0928070068359375	-5.01337463378906	7.71316040039063	0.85019615317609	0.41655596577664	0.321943517562428	-0.52251252966165	0.59284722941224	0.612791007542387	0.0643984275519433	-0.689212079083152	0.721692145290994
361	9.141516	0	0	0	0	0	0	0	0	0	0	0	0	0.456849975585938	-3.78832214355469	7.82991760253906	0.852444424082398	0.419951570379448	0.311414807590558	-0.518708801116374	0.604809152521247	0.604274001319721	0.0654192899322774	-0.67664360453814	0.733398765299199
362	9.141516	0	0	0	0	0	0	0	0	0	0	0	0	0.34727783203125	-2.64350280761719	7.32995727539063	0.853061043047739	0.424495577068928	0.303463938357134	-0.517688764626955	0.615529529839225	0.594240473945456	0.0654614376050632	-0.664023269882029	0.744840853633753
363	9.141516	0	0	0	0	0	0	0	0	0	0	0	0	0.331710205078125	-1.77291320800781	9.73156311035156	0.852457179252352	0.427789085849856	0.300521639102527	-0.518745365767049	0.620706525111714	0.587900208520929	0.0649615504459019	-0.657053961034774	0.751039339350596
364	9.141516	0	0	0	0	0	0	0	0	0	0	0	0	0.193397827148438	-1.55975646972656	9.71419921875	0.851995988683213	0.430418774094116	0.298064614094046	-0.519569747257463	0.625065860930933	0.582528923945831	0.0644213706973875	-0.651177662705033	0.756186179846921
365	9.141516	0	0	0	0	0	0	0	0	0	0	0	0	0.47900390625	-1.32264953613281	9.68186645507813	0.851578975517908	0.432985220092855	0.295528421030893	-0.520243384291962	0.628658004663456	0.578044924095876	0.0644986011965879	-0.645997610176465	0.760609635811946
366	9.141516	0	0	0	0	0	0	0	0	0	0	0	0	0.658031616210938	-0.632883911132813	9.24896667480469	0.85083347228277	0.434863289306888	0.294917483470272	-0.52163428760635	0.631684689292596	0.573473733754853	0.0630878152788647	-0.641769719546279	0.764298079702435
367	9.141516	0	0	0	0	0	0	0	0	0	0	0	0	0.235909423828125	-0.516126708984375	9.50703002929688	0.849570627843177	0.437242459888208	0.29504030161498	-0.52372722779364	0.632677366452633	0.570463969805412	0.0627657484121547	-0.639170072241708	0.766499888830254
368	9.141516	0	0	0	0	0	0	0	0	0	0	0	0	0.386196899414063	-0.899329833984375	9.00946472167969	0.849156112051462	0.438287919383439	0.294682196761497	-0.524493534145064	0.634349220349758	0.567897525335051	0.0619712030354941	-0.636792561486227	0.768540697445583
369	9.141516	0	0	0	0	0	0	0	0	0	0	0	0	0.464035034179688	-0.48139892578125	8.97892822265625	0.847689164997095	0.441058286602259	0.294772229638423	-0.526874248705548	0.635176891545293	0.564759986629562	0.061859563508741	-0.634048818519788	0.770814822208401
370	9.141516	0	0	0	0	0	0	0	0	0	0	0	0	0.377215576171875	-0.4263134765625	9.78664855957031	0.846195942396811	0.442508542707052	0.296881485954335	-0.529360532289137	0.634216037672844	0.563513482015399	0.0610725300420264	-0.634000163398906	0.770917595391639
371	9.141516	0	0	0	0	0	0	0	0	0	0	0	0	0.547261962890625	-0.581390991210938	9.08610534667969	0.844472590230669	0.444264637497302	0.299157109590421	-0.532216687962215	0.633373812067467	0.561767755608718	0.06009526939481	-0.633613877733527	0.771311877608435
372	9.141516	0	0	0	0	0	0	0	0	0	0	0	0	0.574205932617188	-0.665216674804687	9.36213134765625	0.84367287733609	0.445744504823538	0.29921215294012	-0.533436581141723	0.633205897936738	0.56079916611739	0.0605102466304158	-0.63274175398637	0.771995066574249
373	9.141516	0	0	0	0	0	0	0	0	0	0	0	0	0.774788818359375	-0.104782104492188	8.30712524414063	0.842434437073743	0.448066872738311	0.299232847105321	-0.535399864640536	0.633868011506992	0.55817410270548	0.0604251948705318	-0.630434311838023	0.773887184466945
374	9.141516	0	0	0	0	0	0	0	0	0	0	0	0	0.555045776367188	-0.383801879882813	9.07053771972656	0.840949954972673	0.44993011670294	0.300609486402439	-0.537760787550232	0.633169295706705	0.556695588582872	0.0601374143509172	-0.629809124305098	0.774418464615373
375	9.141516	0	0	0	0	0	0	0	0	0	0	0	0	0.5316943359375	-0.71132080078125	9.79742614746094	0.83977953648086	0.451752041093643	0.301148507344332	-0.539565092434934	0.632788697801023	0.555380927797279	0.0603310959097597	-0.628886760317796	0.775152631140032
376	9.141516	0	0	0	0	0	0	0	0	0	0	0	0	0.657432861328125	-0.5604345703125	8.75499389648438	0.839007231078282	0.453856730162198	0.300134860828981	-0.540660739322238	0.633273621046932	0.553760314433636	0.0612603554828547	-0.626880043846178	0.776703662585371
377	9.141516	0	0	0	0	0	0	0	0	0	0	0	0	0.971779174804688	-0.163460083007813	9.37350769042969	0.837700318294719	0.45517942145094	0.301777850440541	-0.542756941167003	0.632558799651517	0.552525354891946	0.0606059365406076	-0.626642688675947	0.77694649827708
378	9.141516	0	0	0	0	0	0	0	0	0	0	0	0	0.240100708007813	-0.492775268554688	9.63456481933594	0.83549563991415	0.457450504940878	0.30444387202534	-0.546294211275659	0.631754816935971	0.549953167101439	0.0592424713457417	-0.625799398216021	0.777730957839095
379	9.141516	0	0	0	0	0	0	0	0	0	0	0	0	0.454454956054687	-0.376616821289063	9.48487609863281	0.83356870721157	0.459240919832157	0.307019523661521	-0.549377273488512	0.630948357248552	0.547803597888589	0.057860364084252	-0.625301485714746	0.778235330880686
380	9.141516	0	0	0	0	0	0	0	0	0	0	0	0	0.52450927734375	-0.624501342773437	9.65671875	0.832354307861475	0.460631430695989	0.308228796901608	-0.551219887515222	0.629979883106161	0.547066707531407	0.0578181787343087	-0.625255173458417	0.7782756749837
381	9.141516	0	0	0	0	0	0	0	0	0	0	0	0	0.786763916015625	-0.782572631835938	9.65312622070313	0.831661155180278	0.460976481417061	0.309581017739383	-0.55230635232201	0.629059451592063	0.54703007188586	0.057423132524817	-0.625927224158719	0.777764549145819
382	9.141516	0	0	0	0	0	0	0	0	0	0	0	0	0.943038940429688	-0.9627978515625	9.07652526855469	0.830683886791258	0.4612015394367	0.311861219529756	-0.553851185425937	0.627522904777925	0.547232919679875	0.0566846066198991	-0.627302274824741	0.77671018492875
383	9.141516	0	0	0	0	0	0	0	0	0	0	0	0	0.6179150390625	-1.05620361328125	9.84772155761719	0.82803241449586	0.459959286367838	0.320624040627252	-0.558041177496972	0.620668883129552	0.550781428274872	0.054335667493368	-0.634986293079389	0.770610175665587
384	9.141516	0	0	0	0	0	0	0	0	0	0	0	0	0.252075805664063	-2.30101501464844	8.47896789550781	0.825784621443866	0.459145936507896	0.327513004283949	-0.561439633718924	0.614128176668896	0.554645941399464	0.0535284660379066	-0.641896869917297	0.764920330305062
385	9.141516	0	0	0	0	0	0	0	0	0	0	0	0	0.807720336914063	-1.8776953125	8.45980773925781	0.824029586109626	0.459094303756535	0.331975392874684	-0.56403769602566	0.609698984026987	0.55689193416544	0.0532608550256581	-0.646142065752387	0.761356494808558
386	9.141516	0	0	0	0	0	0	0	0	0	0	0	0	0.0640667724609375	-2.7207421875	9.34656372070313	0.822529193178714	0.459772682273418	0.334745884222466	-0.566151520606461	0.606043358491291	0.558734197399433	0.054020200700903	-0.649092079957616	0.758789357893566
387	9.141516	0	0	0	0	0	0	0	0	0	0	0	0	0.890348510742188	-2.67643432617188	7.59281066894531	0.820081814077032	0.458703310361789	0.342136071298044	-0.569876616352948	0.600287803765722	0.561155232341499	0.0520236518733496	-0.655168547561055	0.753689401499383
388	9.141516	0	0	0	0	0	0	0	0	0	0	0	0	0.258063354492188	-3.67036743164063	8.73164245605469	0.818646642402875	0.458436990353182	0.345909237746576	-0.571976152308571	0.596747614521193	0.562792648986772	0.0515844557282772	-0.658580147316318	0.750740456807834
389	9.141516	0	0	0	0	0	0	0	0	0	0	0	0	0.240699462890625	-3.93322082519531	8.90647888183594	0.817043020113981	0.458191918592855	0.35000124145383	-0.574370074789909	0.59374223424499	0.563532764317747	0.0503956393833663	-0.66146075092175	0.74828467478706
390	9.141516	0	0	0	0	0	0	0	0	0	0	0	0	0.1916015625	-4.55592590332031	8.29455139160156	0.81652922306613	0.457573209950751	0.352003956532291	-0.575044179454561	0.590751836235706	0.565982737951937	0.0510315544976981	-0.664559271637607	0.745490948922951
391	9.141516	0	0	0	0	0	0	0	0	0	0	0	0	0.226928100585938	-4.05297180175781	8.5789599609375	0.812216894679877	0.455831449502243	0.364034896186152	-0.581188150479071	0.57856121549189	0.572265020485495	0.0502399217684099	-0.676376085896915	0.734841030895441
392	9.141516	0	0	0	0	0	0	0	0	0	0	0	0	0.39996826171875	-5.3121533203125	6.59768005371094	0.811260803924981	0.455923383260269	0.366046140003558	-0.582439143832989	0.575359349482804	0.574217957481148	0.0511913249104682	-0.679040122201359	0.732314113406724
393	9.141516	0	0	0	0	0	0	0	0	0	0	0	0	0.125139770507812	-5.43010803222656	8.85318969726563	0.808123139252316	0.453521162613039	0.375839788829096	-0.586815517907412	0.564832707515497	0.580182351044712	0.0508383688569732	-0.689407403197	0.72258763667055
394	9.141516	0	0	0	0	0	0	0	0	0	0	0	0	0.592168579101563	-5.9827587890625	5.69655395507813	0.80702260624979	0.451352018722514	0.380783229931294	-0.588323497996473	0.558963965245606	0.584324179939614	0.0508917941026975	-0.695586544401213	0.716637554514825
395	9.141516	0	0	0	0	0	0	0	0	0	0	0	0	0.358654174804688	-6.19292175292969	6.15400268554688	0.805682730538332	0.449560784384468	0.385707711688422	-0.590128550660241	0.552874584707629	0.588283934235851	0.0512213959975838	-0.70158733934414	0.710740159174976
396	9.141516	0	0	0	0	0	0	0	0	0	0	0	0	0.15567626953125	-6.89047119140625	5.98096252441406	0.803022710199347	0.44853596010798	0.392390136718686	-0.593762995154294	0.545835897303196	0.591192590278851	0.0509905137206805	-0.707727818942584	0.704642676684625
397	9.141516	0	0	0	0	0	0	0	0	0	0	0	0	0.192799072265625	-7.05932006835938	5.70074523925781	0.801726242868623	0.447122132109623	0.39663185761296	-0.595453242313599	0.54013538364651	0.594717751165426	0.0516765683263213	-0.712976553829636	0.699281035046163
398	9.141516	0	0	0	0	0	0	0	0	0	0	0	0	0.264649658203125	-7.33714233398438	5.58159301757813	0.799528727609899	0.444345557107365	0.404117358703437	-0.598438895351913	0.531947071069402	0.59908530453573	0.0512318480681684	-0.720825457000258	0.691220629237792
399	9.141516	0	0	0	0	0	0	0	0	0	0	0	0	0.530496826171875	-7.77962219238281	4.64993041992188	0.798556462763651	0.440916619713496	0.409756159488581	-0.599636259820499	0.523494283804367	0.605301652676281	0.0523825513591155	-0.729072197580307	0.682429336289504
400	9.141516	0	0	0	0	0	0	0	0	0	0	0	0	0.55803955078125	-8.08917846679688	4.56730224609375	0.797612817364297	0.436862103940454	0.415890966140054	-0.600860278730094	0.515200008125425	0.611175815189014	0.0527325233663483	-0.737374025694072	0.673423215527306
401	9.141516	0	0	0	0	0	0	0	0	0	0	0	0	0.748443603515625	-8.46100524902344	3.58654174804688	0.797159679713165	0.431836213663084	0.421964370070193	-0.601487025114279	0.507302197082304	0.617136807729568	0.0524385703350002	-0.745762673646649	0.664144736436737
402	9.141516	0	0	0	0	0	0	0	0	0	0	0	0	0.928668823242188	-9.07532775878906	2.40220458984375	0.796463877285018	0.427902634869253	0.427252416320922	-0.602407103961725	0.500201948107891	0.622015829545774	0.0524497214154923	-0.75279303010922	0.656164370064709
403	9.141516	0	0	0	0	0	0	0	0	0	0	0	0	0.386196899414063	-9.05437133789063	2.5339306640625	0.795641013709085	0.424494678482624	0.432156968292673	-0.603432160914149	0.49280364127081	0.626908444930128	0.053150771193473	-0.759571483857948	0.648248529833562
404	9.141516	0	0	0	0	0	0	0	0	0	0	0	0	0.61552001953125	-9.33518737792969	1.89446044921875	0.79478784137374	0.419427951488754	0.438625672657699	-0.604602956434486	0.484570183087811	0.632176401594464	0.0526075305935424	-0.767640496047592	0.6387178692918
405	9.141516	0	0	0	0	0	0	0	0	0	0	0	0	1.11009155273438	-9.16873352050781	0.988544311523438	0.794374155974723	0.414613646705094	0.443920290463671	-0.605197306059571	0.477640147298753	0.636864279440027	0.052018468428868	-0.774567888344417	0.630348050911546
406	9.141516	0	0	0	0	0	0	0	0	0	0	0	0	0.755628662109375	-9.40105041503906	0.87418212890625	0.794314045899994	0.410493154060614	0.447839889866179	-0.605256951127763	0.471337722432368	0.641486379063338	0.0522419333247449	-0.780599847477334	0.622844008176089
407	9.141516	0	0	0	0	0	0	0	0	0	0	0	0	0.8095166015625	-9.56690551757813	0	0.794376194997133	0.405963096525505	0.451841150274408	-0.605244136040889	0.466007801471952	0.645380713033319	0.05143925164691	-0.7861492817695	0.615892287793333
408	9.141516	0	0	0	0	0	0	0	0	0	0	0	0	1.23882385253906	-9.2783056640625	-0.801134033203125	0.794635549494875	0.402027310022615	0.454893817802527	-0.60493193125357	0.461281856549572	0.649058092444742	0.0511048141450965	-0.790944429662515	0.609750118619943
409	9.141516	0	0	0	0	0	0	0	0	0	0	0	0	0.474812622070313	-9.52798645019531	-0.005987548828125	0.794508279547033	0.398322996678921	0.458361630209094	-0.605102945244021	0.455840006175916	0.652732957974816	0.0510589795063086	-0.795957711870591	0.603195077504375
410	9.141516	0	0	0	0	0	0	0	0	0	0	0	0	1.06458618164063	-9.67707641601563	-1.22385498046875	0.795382566457056	0.39458108605301	0.460078623178054	-0.603969728418765	0.45227362316162	0.656253866233201	0.0508639374208351	-0.799846445464058	0.598045586513739
411	9.141516	0	0	0	0	0	0	0	0	0	0	0	0	1.24301513671875	-9.54415283203125	-1.54897888183594	0.795913174095922	0.391311925853391	0.461949343527476	-0.603289323644824	0.448819832047329	0.659244074935209	0.0506380417939579	-0.803390151200473	0.593295924204234
412	9.141516	0	0	0	0	0	0	0	0	0	0	0	0	0.777782592773438	-9.60642333984375	-1.36037109375	0.796935514400377	0.388546630666715	0.462520595957575	-0.601926133365144	0.446423334973149	0.662111120555711	0.050781058077736	-0.80606310037676	0.589646981126429
413	9.141516	0	0	0	0	0	0	0	0	0	0	0	0	0.757424926757813	-9.65492248535156	-0.867595825195313	0.797887259409915	0.385232606920491	0.463650471623375	-0.600738040638613	0.444485475334667	0.664489630277399	0.0498971722747376	-0.808720285872537	0.586073179233812
414	9.141516	0	0	0	0	0	0	0	0	0	0	0	0	1.17296081542969	-9.455537109375	-1.73040161132813	0.798439208721189	0.381754098188619	0.465573451232859	-0.600029717940656	0.440849700879796	0.667544664290152	0.049589994603131	-0.812351740165791	0.581055490194244
415	9.141516	0	0	0	0	0	0	0	0	0	0	0	0	0.78317138671875	-9.70521789550781	-1.22684875488281	0.798462577897234	0.378771989653231	0.467962916855424	-0.600034056300663	0.437200751417543	0.669936291179474	0.0491593630662194	-0.815712745281124	0.57636453240016
416	9.141516	0	0	0	0	0	0	0	0	0	0	0	0	1.24780517578125	-9.4699072265625	-2.50279541015625	0.800471076953218	0.377192797892613	0.465802155618991	-0.597367406455108	0.438566050722344	0.671425350175956	0.0489717946011211	-0.815711598772354	0.57638212234749
417	9.141516	0	0	0	0	0	0	0	0	0	0	0	0	0.728684692382813	-9.48068481445313	-1.0202783203125	0.800532850130866	0.374759912489251	0.467656031557812	-0.597366267345644	0.436542596339815	0.672743713622377	0.0479655970345937	-0.817915380447111	0.573335618925924
418	9.141516	0	0	0	0	0	0	0	0	0	0	0	0	0.844843139648437	-9.84532653808594	-1.39988891601563	0.802335937784422	0.372732466457662	0.466184031674167	-0.594979481234876	0.437290445502567	0.674371176120128	0.0475022088862301	-0.818442163332605	0.572622009208846
419	9.141516	0	0	0	0	0	0	0	0	0	0	0	0	1.05440734863281	-9.56750427246094	-2.25071960449219	0.803526662886621	0.371267919813428	0.465301014127093	-0.593366799336284	0.437120912627392	0.675900250916665	0.0475472762175182	-0.819198046543817	0.571536365477376
420	9.141516	0	0	0	0	0	0	0	0	0	0	0	0	0.8813671875	-9.76808715820312	-1.32444580078125	0.805141113174393	0.369893627067621	0.463601652856263	-0.591254313253046	0.439259464564409	0.676364886618354	0.0465416473276259	-0.81867565460648	0.572367056720321
421	9.141516	0	0	0	0	0	0	0	0	0	0	0	0	1.1448193359375	-9.43937072753906	-1.5088623046875	0.806832005648032	0.368426205236026	0.461827073651335	-0.589038229555216	0.441677654003109	0.676723587646217	0.045344004944762	-0.818036051314178	0.573376787083221
422	9.141516	0	0	0	0	0	0	0	0	0	0	0	0	0.54366943359375	-9.78305603027344	-0.39517822265625	0.808802477404879	0.36716452871209	0.4593786688554	-0.586389532340642	0.444325831808127	0.677290094087711	0.0445630890429961	-0.817168748817308	0.574673269824951
423	9.141516	0	0	0	0	0	0	0	0	0	0	0	0	0.8861572265625	-9.28668823242188	-1.22804626464844	0.810504476017676	0.366327218055841	0.457041424453825	-0.584073597392623	0.446784330587835	0.677673811483091	0.0440514152343865	-0.816203486425199	0.576082755828708
424	9.141516	0	0	0	0	0	0	0	0	0	0	0	0	0.720302124023438	-9.70402038574219	-1.02207458496094	0.813320028323118	0.365606466315893	0.452595231212712	-0.580239109504628	0.452450503970486	0.677208326335501	0.0428148026943923	-0.813400549080746	0.580126227148352
425	9.141516	0	0	0	0	0	0	0	0	0	0	0	0	0.713117065429688	-9.72797058105469	-0.192200317382813	0.814868507105346	0.364474855116998	0.450718755007319	-0.57811869749284	0.454623423971258	0.677566464626041	0.0420486353772233	-0.812696513074895	0.581168039295711
426	9.141516	0	0	0	0	0	0	0	0	0	0	0	0	0.281414794921875	-10.0357305908203	-0.503552856445313	0.815945245007673	0.365433738938565	0.447986093081861	-0.576593101141899	0.457936543473082	0.676634700460665	0.0421159454949987	-0.810402557126584	0.584357717958577
427	9.141516	0	0	0	0	0	0	0	0	0	0	0	0	0.756826171875	-9.23160278320313	-0.508342895507813	0.817412306362343	0.365985735846582	0.444850045031169	-0.574527285609594	0.461785470606844	0.675775537605859	0.0418989200036056	-0.80796572965272	0.587737917961127
428	9.141516	0	0	0	0	0	0	0	0	0	0	0	0	0.522713012695313	-9.11843811035156	1.52921997070313	0.8187217546859	0.36606322551138	0.44237134099334	-0.572762121031862	0.466352650650371	0.674135563475519	0.0404751913537768	-0.805302998975899	0.591480209918555
429	9.141516	0	0	0	0	0	0	0	0	0	0	0	0	0.319735107421875	-9.43817321777344	1.32923583984375	0.820952865849902	0.365841104928621	0.438402415592614	-0.569660688171358	0.472283088055005	0.672633172754187	0.0390268164851823	-0.801940752600736	0.596127450226207
430	9.141516	0	0	0	0	0	0	0	0	0	0	0	0	0.252075805664063	-9.39506286621094	2.06330932617188	0.823454846389203	0.366243043641072	0.433345299896813	-0.566157389567501	0.480240777624882	0.669951196539242	0.0372548815089773	-0.79701620340541	0.602807801304014
431	9.141516	0	0	0	0	0	0	0	0	0	0	0	0	0.246088256835938	-9.24417663574219	2.65667541503906	0.825400512409318	0.366818741841268	0.429136347503243	-0.563411407821701	0.487028165622984	0.667361334979994	0.0357991571242184	-0.792620701548919	0.608663161219156
432	9.141516	0	0	0	0	0	0	0	0	0	0	0	0	0.41912841796875	-8.63703918457031	2.83690063476562	0.826528046903332	0.367168621109849	0.426659807521702	-0.561852266212497	0.492006340621313	0.665020143860549	0.0342551986426046	-0.789377580414289	0.612951561630476
433	9.141516	0	0	0	0	0	0	0	0	0	0	0	0	-0.232915649414063	-8.68314331054687	3.8559814453125	0.827602058499499	0.368200264237412	0.423678413638096	-0.560327006821676	0.49714799535237	0.662478313715537	0.0332938161473644	-0.785666873511045	0.61775325630362
434	9.141516	0	0	0	0	0	0	0	0	0	0	0	0	-0.228724365234375	-8.53345458984375	4.33318908691406	0.829361312759145	0.368971851466231	0.419546881437592	-0.557781691540501	0.503464105603413	0.659851103622002	0.0322396879737675	-0.781270546734316	0.623359394992021
435	9.141516	0	0	0	0	0	0	0	0	0	0	0	0	0.1149609375	-8.24186096191406	4.28468994140625	0.830502987253861	0.369716110375578	0.416623074122362	-0.556147671239081	0.508682087432174	0.65722317495733	0.0310573008769396	-0.777529762552148	0.628078746979899
436	9.141516	0	0	0	0	0	0	0	0	0	0	0	0	-0.065863037109375	-7.93410095214844	4.13919250488281	0.832576351975143	0.371299114752333	0.411039639835255	-0.553052097312022	0.51593887093178	0.654171582324098	0.0308220017282638	-0.771974124466471	0.63490625714643
437	9.141516	0	0	0	0	0	0	0	0	0	0	0	0	-0.05029541015625	-7.098837890625	5.57680297851563	0.834480224346688	0.371959275263664	0.406557563845062	-0.550239310034331	0.522764057853565	0.651117839956347	0.0296556380347009	-0.767048914582249	0.640902883259976
438	9.141516	0	0	0	0	0	0	0	0	0	0	0	0	-0.354462890625	-6.8593359375	6.29471008300781	0.835211259473905	0.372973078493576	0.40412032214062	-0.54919565506706	0.527757647852724	0.647962960043569	0.0283951492948413	-0.763127084994358	0.645624323925717
439	9.141516	0	0	0	0	0	0	0	0	0	0	0	0	-0.538280639648438	-6.83658325195313	6.34919677734375	0.836388298755333	0.374317423684838	0.400426123062802	-0.54742938398844	0.533305150985321	0.644908276794895	0.0278510906644195	-0.758598762362864	0.650962544614
440	9.141516	0	0	0	0	0	0	0	0	0	0	0	0	-0.291593627929688	-6.48331787109375	6.53600830078125	0.837312977807561	0.376043713067209	0.396860306729788	-0.54607932041302	0.539998874543635	0.640467478728516	0.0265396498147374	-0.75298893840098	0.657497760934193
441	9.141516	0	0	0	0	0	0	0	0	0	0	0	0	-0.1868115234375	-5.98036376953125	7.58802062988281	0.838025190688975	0.377935352972269	0.393546247275253	-0.545024506505321	0.545804763159852	0.636431809246403	0.0257306641838012	-0.747838237512461	0.663382169970611
442	9.141516	0	0	0	0	0	0	0	0	0	0	0	0	-0.12693603515625	-5.14210693359375	6.96172302246094	0.837330247971082	0.380037221286032	0.393000974896853	-0.546139098594665	0.548996584695555	0.632720186953777	0.0247010287010961	-0.744428949215308	0.667244631863982
443	9.141516	0	0	0	0	0	0	0	0	0	0	0	0	-0.5508544921875	-5.19359985351563	8.31730407714844	0.83812191793879	0.38193613913955	0.389456591021103	-0.544930819699381	0.554126602432595	0.629280629145908	0.0245367563537904	-0.739640787203953	0.672554424185843
444	9.141516	0	0	0	0	0	0	0	0	0	0	0	0	-0.590372314453125	-5.20377868652344	7.81794250488281	0.840401798786662	0.385207412823487	0.381234921933942	-0.541391842192874	0.564385212672194	0.623188739407227	0.0248935695140334	-0.730126414275499	0.682858498793163
445	9.141516	0	0	0	0	0	0	0	0	0	0	0	0	0.305963745117187	-4.18529663085938	7.24972412109375	0.840835413594044	0.387190686748011	0.378258085626385	-0.540731531640865	0.569076170827567	0.619485046216257	0.024601177521767	-0.725421039046868	0.687865610546642
446	9.141516	0	0	0	0	0	0	0	0	0	0	0	0	-0.0293389892578125	-3.33027465820313	8.51788696289062	0.839318297955589	0.389631622654941	0.379120024984453	-0.5431288669587	0.570737680009209	0.615848629529907	0.0235760173288993	-0.722804053146483	0.690650759908309
447	9.141516	0	0	0	0	0	0	0	0	0	0	0	0	-0.522713012695313	-3.85119140625	8.75738891601562	0.839843103378415	0.391945237581882	0.375556244049537	-0.542347582443495	0.576725613673684	0.610939167471204	0.0228617918241251	-0.716775067416267	0.696929581238303
448	9.141516	0	0	0	0	0	0	0	0	0	0	0	0	0.238903198242188	-2.98000305175781	7.68561767578125	0.840479709970653	0.394865936537049	0.371045481431005	-0.541360599425092	0.583060901484058	0.605779404198181	0.0228595388788222	-0.710014702188143	0.703815717470796
449	9.141516	0	0	0	0	0	0	0	0	0	0	0	0	0.304766235351562	-2.24473205566406	8.47956665039063	0.839551111323065	0.397651575302559	0.370171792733591	-0.542819864582685	0.585925198707113	0.601696149343226	0.0223724404266203	-0.706091273263892	0.707767325983571
450	9.141516	0	0	0	0	0	0	0	0	0	0	0	0	-0.511336669921875	-2.30460754394531	9.97106506347656	0.83853368307615	0.400758324642192	0.369126032103847	-0.544404558509946	0.588888399474395	0.597355948859702	0.0220213310300926	-0.701856978446798	0.711977417328102
451	9.141516	0	0	0	0	0	0	0	0	0	0	0	0	0.295784912109375	-1.5950830078125	7.88560180664063	0.839651510295031	0.403604636465609	0.363440006992539	-0.542677159348242	0.596257579541567	0.591589722325324	0.0220644959379616	-0.693959794413693	0.719675594803873
452	9.141516	0	0	0	0	0	0	0	0	0	0	0	0	0.3065625	-1.13104797363281	8.90348510742188	0.839586637116763	0.406753570608501	0.360063621561801	-0.542789301606663	0.601589463952465	0.58606304347121	0.0217727544494524	-0.687489381487904	0.725867961481331
453	9.141516	0	0	0	0	0	0	0	0	0	0	0	0	-0.0143701171875	-0.470621337890625	9.46152465820312	0.837621805660568	0.410761564227014	0.360089777743978	-0.545852507892992	0.604241524888258	0.580462935274635	0.0208506668685174	-0.682764320211953	0.730341107111361
454	9.141516	0	0	0	0	0	0	0	0	0	0	0	0	0.063468017578125	-0.15328125	9.28549072265625	0.836705713992559	0.414830085811026	0.357546567705828	-0.547236566963415	0.607849011615425	0.575370940225736	0.0213468487205379	-0.677078709593034	0.73560093329572
455	9.141516	0	0	0	0	0	0	0	0	0	0	0	0	0.12214599609375	-0.220940551757813	9.551337890625	0.834347869487827	0.418907892918982	0.358301283742192	-0.550816167676755	0.608136582531848	0.571639262483236	0.021568080744863	-0.674304140753016	0.738138702180233
456	9.141516	0	0	0	0	0	0	0	0	0	0	0	0	1.25918151855469	0.575403442382812	8.5789599609375	0.833797289432127	0.420983875618518	0.357147947781937	-0.551654844405128	0.610231078376883	0.568590330226728	0.0214245835429989	-0.67111147170362	0.74104681347929
457	9.141516	0	0	0	0	0	0	0	0	0	0	0	0	0.0113763427734375	-0.105380859375	10.3967797851562	0.832122240841847	0.423858168176587	0.357654623297857	-0.554132005639871	0.609170153687406	0.567317762970627	0.0225897459454018	-0.670265601926916	0.74177741017887
458	9.141516	0	0	0	0	0	0	0	0	0	0	0	0	0.555045776367188	-0.0844244384765625	8.75918518066406	0.83092179038133	0.426656673024786	0.357117713972448	-0.555900004499435	0.609706262422706	0.565007485401798	0.0233273073245497	-0.667998770153026	0.743796665633176
459	9.141516	0	0	0	0	0	0	0	0	0	0	0	0	0.63228515625	0.23231689453125	9.72437805175781	0.828648652819427	0.430505491881386	0.357779864777933	-0.559191216211618	0.607602232020622	0.564025452754864	0.0254282105607453	-0.667446289302386	0.744223660604898
460	9.141516	0	0	0	0	0	0	0	0	0	0	0	0	0.496966552734375	-0.170645141601563	9.48248107910156	0.825951476763309	0.435192105351227	0.358346186630297	-0.563079631821017	0.606075965841526	0.561794670549276	0.0273035942838532	-0.665792576610185	0.745637149470139
461	9.141516	0	0	0	0	0	0	0	0	0	0	0	0	0.54366943359375	0.0233514404296875	8.75679016113281	0.823699962926399	0.440244711313353	0.357355516587714	-0.566215480077411	0.604932024071298	0.559872553688526	0.0303051348084251	-0.66350722709977	0.747555856368351
462	9.141516	0	0	0	0	0	0	0	0	0	0	0	0	0.814306640625	0.017962646484375	8.85857849121094	0.82148736257219	0.444242982984225	0.357500608675655	-0.569343201647878	0.60411271483746	0.557580618842745	0.0317306141057972	-0.661585973128959	0.749197683049993
463	9.141516	0	0	0	0	0	0	0	0	0	0	0	0	0.842448120117188	0.13172607421875	9.06993896484375	0.819236553397561	0.447906778620596	0.358093545380263	-0.572514853704965	0.603071992719973	0.555455591279756	0.0328361365642789	-0.660063397911505	0.750491904601942
464	9.141516	0	0	0	0	0	0	0	0	0	0	0	0	0.3496728515625	0.582588500976563	9.12622192382813	0.815146735183538	0.454338351291096	0.359322226790533	-0.57820016629945	0.600786429744377	0.552032819247455	0.0349337631941805	-0.657747921609103	0.752427607021433
465	9.141516	0	0	0	0	0	0	0	0	0	0	0	0	0.629291381835938	0.681981811523438	9.23399780273438	0.811409281707769	0.460504031414597	0.35993195830516	-0.583274742832193	0.5984829389573	0.549189171553002	0.0374906912782719	-0.655556411629035	0.754214982110234
466	9.141516	0	0	0	0	0	0	0	0	0	0	0	0	1.05440734863281	0.590372314453125	8.71787109375	0.806566328150079	0.468007223296929	0.361137089256142	-0.589783675835615	0.595673189299408	0.545278522653976	0.0400746055792275	-0.652796055818179	0.756472957544352
467	9.141516	0	0	0	0	0	0	0	0	0	0	0	0	0.58677978515625	0.78796142578125	8.18737426757813	0.801169112849103	0.476443343554452	0.362118479229156	-0.596867042358896	0.59235597374502	0.541169228720863	0.0433334323856999	-0.649704656556534	0.758950639295093
468	9.141516	0	0	0	0	0	0	0	0	0	0	0	0	0.0916094970703125	0.596958618164062	9.20406005859375	0.796007544521892	0.484074628857646	0.363378236498226	-0.603405555770449	0.587330134376134	0.539393222537203	0.0476835855361607	-0.648625521352687	0.759612538548681
469	9.141516	0	0	0	0	0	0	0	0	0	0	0	0	-0.339494018554688	0.794547729492188	8.56638610839844	0.788267267505872	0.495846383369327	0.364377659960631	-0.613154483072996	0.583166070114922	0.5328779546521	0.0517329185945754	-0.643470044964237	0.763721157470062
470	9.141516	0	0	0	0	0	0	0	0	0	0	0	0	-0.3448828125	0.860410766601563	9.01664978027344	0.780987522872318	0.505470379383417	0.366821734203068	-0.622018397015433	0.5767306739411	0.529598757088606	0.056139138683385	-0.641779888514302	0.764831335528598
471	9.141516	0	0	0	0	0	0	0	0	0	0	0	0	-0.326920166015625	1.04243225097656	8.42986999511719	0.774822793757353	0.515346977270066	0.366151787231275	-0.629252317788424	0.573043328138483	0.525036060317638	0.0607549078836154	-0.63721176785632	0.768290312364718
472	9.141516	0	0	0	0	0	0	0	0	0	0	0	0	-0.892743530273438	0.882564697265625	9.62438598632813	0.769164601709927	0.525257944676389	0.363991630440514	-0.635562432519596	0.569320789571714	0.521473137305475	0.0666799058651331	-0.632438084017539	0.771735615374878
