// Start Time: Unknown
// Update Rate: 100.0Hz
// Filter Profile: human (46.1)
// Option Flags: AHS Disabled ICC Disabled 
// Firmware Version: 4.0.2
PacketCounter	SampleTimeFine	Acc_X	Acc_Y	Acc_Z	Mat[1][1]	Mat[2][1]	Mat[3][1]	Mat[1][2]	Mat[2][2]	Mat[3][2]	Mat[1][3]	Mat[2][3]	Mat[3][3]
1	0.0001	-9.53577026367187	0.998124389648438	-1.72740783691406	0.149804762404237	0.959453567493357	-0.238762193375082	0.145796945506552	-0.26028383157187	-0.954460883275593	-0.977906838017799	0.108171987346707	-0.178877157042184
2	0.0001	-9.6327685546875	0.941841430664063	-1.8729052734375	0.151785073556104	0.959279004635992	-0.238212263979312	0.146268510699898	-0.260150718620655	-0.954425023969296	-0.97753097865142	0.110024519384261	-0.179799307315297
3	0.0001	-9.76269836425781	1.07835754394531	-1.8633251953125	0.153013956508075	0.959005155078017	-0.238528492318076	0.146146417035371	-0.260676633320095	-0.954300224053533	-0.977357638687839	0.111161168465838	-0.180042330366615
4	0.0001	-9.62438598632813	1.09153015136719	-1.85494262695313	0.153173664289561	0.958588937735741	-0.240093892089684	0.145747032081975	-0.26221824259604	-0.953938884776766	-0.977392260664778	0.111125342296473	-0.179876421723602
5	0.0001	-9.78545104980469	1.13643676757813	-1.733994140625	0.151994302741595	0.958268883612115	-0.242112532998371	0.144268125440044	-0.263844865610878	-0.953715153949434	-0.977795704590745	0.110030148557422	-0.178350571886719
6	0.0001	-9.72497680664063	1.063388671875	-1.62502075195313	0.150159817403238	0.958126635395957	-0.243814232115864	0.142386589003707	-0.264997435984085	-0.953678362024509	-0.978354786623603	0.108488291841483	-0.176216350047326
7	0.0001	-9.62977478027344	1.1879296875	-1.50526977539063	0.148607560819932	0.958057310058748	-0.245034657773441	0.139894375827894	-0.265661279235685	-0.953862489212456	-0.978951151221997	0.107472207374075	-0.173506104109538
8	0.0001	-9.33279235839844	1.02686462402344	-1.36396362304688	0.14691705114945	0.95799761065744	-0.246284303308564	0.137379545634679	-0.266335202089576	-0.954040051868428	-0.979562269854632	0.106330325413494	-0.170738458979521
9	0.0001	-9.46451843261719	0.82388671875	-1.18673217773438	0.143680206947401	0.958252267683045	-0.247201516200558	0.135234329443173	-0.266461836401868	-0.954311147310666	-0.980340590953781	0.10368549185709	-0.167873894655321
10	0.0001	-9.47409851074219	0.609532470703125	-0.899928588867188	0.140768516869699	0.958206464887833	-0.249047375624535	0.132965165929224	-0.267570859412196	-0.954319705257537	-0.981073131477832	0.101223543904478	-0.165073634635271
11	0.0001	-9.55912170410156	0.183817749023438	-0.657432861328125	0.137338757587734	0.958144380201637	-0.251191983057338	0.131168587105723	-0.268954011492399	-0.954179512177261	-0.981800828794184	0.0980973312081797	-0.162616254380941
12	0.0001	-9.37949523925781	0.19399658203125	-0.703536987304688	0.134947465674935	0.958153893522881	-0.252448604343255	0.129947797189987	-0.26969253904698	-0.954138095030202	-0.982294635795891	0.0959533777901436	-0.160904312488136
13	0.0001	-9.52678894042969	0.0293389892578125	-0.772393798828125	0.131734461998484	0.958422508449027	-0.253125120879466	0.129005108696131	-0.269754402786267	-0.95424852324105	-0.982854879141509	0.0930529820892305	-0.159177351002057
14	0.0001	-9.50882629394531	-0.350271606445313	-0.68737060546875	0.128017422393499	0.958712848201267	-0.25393151489632	0.127799115011212	-0.26984996650474	-0.954383770702196	-0.983503393876237	0.0897255274222768	-0.157068150694909
15	0.0001	-9.41362426757813	-0.448467407226563	-0.61552001953125	0.125550527632015	0.958818695109686	-0.25476219287697	0.126219507258334	-0.270145038958804	-0.954510499634975	-0.98402525424848	0.0876833384064852	-0.154938475425272
16	0.0001	-9.36332885742187	-0.209564208984375	-0.817300415039063	0.123343918611832	0.959086949646235	-0.254830337204497	0.124400372488806	-0.269709139024076	-0.954872519057669	-0.984535842448676	0.0860767294056369	-0.152577755877797
17	0.0001	-9.51361633300781	-0.267044677734375	-0.4167333984375	0.120795163368887	0.959483487173917	-0.254558375126933	0.122667667179071	-0.268898520721749	-0.955325195408611	-0.985069120384721	0.0841725810120814	-0.1501792418087
18	0.0001	-9.49565368652344	-0.386196899414063	-0.468226318359375	0.118702366074807	0.959784450077438	-0.254408250019125	0.121684815347368	-0.26834993826137	-0.955605104815266	-0.985445358202128	0.0824749660483121	-0.148644966188601
19	0.0001	-9.51062255859375	-0.237705688476563	-0.276026000976562	0.116682016616882	0.960179411481329	-0.253851934728862	0.12047215524524	-0.267393931137187	-0.956026644713194	-0.985835567835115	0.0809690271546472	-0.146874946239465
20	0.0001	-9.29387329101563	-0.5221142578125	-0.268840942382813	0.114523767162001	0.960562124806036	-0.253386485715274	0.119826285466691	-0.266559333394167	-0.95634082998255	-0.98616731241016	0.0791613931697164	-0.145627970407991
21	0.0001	-9.5034375	-0.4358935546875	-0.236508178710938	0.113055860220249	0.960776250351161	-0.253233823236596	0.11935302119536	-0.266154515796137	-0.956512744323286	-0.986394053510766	0.0779151492489603	-0.144761875906996
22	0.0001	-9.37769897460938	-0.21794677734375	-0.200582885742188	0.11192072318695	0.960984423234169	-0.252947998653089	0.119136441298075	-0.265687441915426	-0.956669583274846	-0.986549674408816	0.0769358272180793	-0.144224194967867
23	0.0001	-9.50583251953125	-0.165855102539063	-0.185614013671875	0.110824445782326	0.961025266267448	-0.25327530438758	0.118730455462863	-0.265822654114537	-0.956682494616205	-0.986722362755918	0.0759523150080617	-0.143562615893883
24	0.0001	-9.33638488769531	-0.324525146484375	-0.2442919921875	0.110077278979331	0.9611644145408	-0.25307303466183	0.119158928166967	-0.265545834256301	-0.956706098939076	-0.986754347591439	0.0751556925958782	-0.143761884308142
25	0.0001	-9.41003173828125	-0.247884521484375	-0.177830200195313	0.109342960679955	0.961228542525141	-0.253147794745944	0.118565709976459	-0.265469038046902	-0.956801109037939	-0.986907437081878	0.074604818031045	-0.142995915183038
26	0.0001	-10.0237554931641	0.185015258789062	-0.296982421875	0.108775220537206	0.96139832828209	-0.252747316055947	0.117752566496056	-0.264927429593095	-0.957051613097636	-0.987067517691001	0.0743418551396066	-0.142024660160578
27	0.0001	-9.47290100097656	-0.0868194580078125	-0.047900390625	0.107202894898926	0.961834273376002	-0.251758554739552	0.117478945523169	-0.263698163269954	-0.957424658156879	-0.987272118862907	0.0730623654647919	-0.141264482686325
28	0.0001	-9.45673461914063	-0.067060546875	0.0305364990234375	0.105169024426395	0.962325150600617	-0.250738470966664	0.117158690965184	-0.262370698248002	-0.95782851170352	-0.987528894479815	0.0713576991105787	-0.140338025300056
29	0.0001	-9.31243469238281	0.0473016357421875	0.211959228515625	0.103043914376704	0.962986786706949	-0.249075089757593	0.117312282312032	-0.260426209207132	-0.958340241238333	-0.98773467091556	0.0695315625153749	-0.139805513787911
30	0.0001	-9.39206909179688	-0.21315673828125	0.145497436523437	0.10116632593769	0.963626695376318	-0.247364036299514	0.117628559667375	-0.258481404272336	-0.958827870681688	-0.987891135928878	0.0679040175801043	-0.139499634227595
31	0.0001	-9.6806689453125	-0.770597534179688	0.200582885742188	0.0983987225995173	0.964074630786987	-0.246734265280928	0.117905440642382	-0.257485416003835	-0.959061816366525	-0.988137641453714	0.0652791453549166	-0.139005880177864
32	0.0001	-9.47828979492188	-1.27355163574219	-0.499960327148438	0.0961200423067762	0.964355529406971	-0.246534683907039	0.118912902038173	-0.257032974289124	-0.959058794786298	-0.988241194848608	0.0628686172130953	-0.139380334961248
33	0.0001	-9.53577026367187	-0.57240966796875	-0.772992553710938	0.0952197853742524	0.964413143298187	-0.246658633554538	0.119115101055987	-0.257042754110278	-0.959031081487887	-0.988303994312329	0.0619379656843331	-0.139351724902073
34	0.0001	-9.32919982910156	-0.14609619140625	-0.298179931640625	0.0953646451131512	0.964534923807074	-0.246125913342997	0.118198208567797	-0.256475544163041	-0.959296345629251	-0.988400105197185	0.0623913135200215	-0.138464999344384
35	0.0001	-9.44655578613281	-0.350870361328125	-0.0143701171875	0.0944469348710706	0.964718100717519	-0.245761597165715	0.117614406872811	-0.255949077293487	-0.959508687364825	-0.988557852525292	0.0617175500210116	-0.137638353048804
36	0.0001	-9.24836791992188	-0.368234252929688	-0.179027709960938	0.094519121459735	0.964945465548032	-0.244839507017908	0.117878336646107	-0.255058476508353	-0.959713431869527	-0.988519515957084	0.0618499966008907	-0.137854069553433
37	0.0001	-9.63755859375	-0.207169189453125	0	0.0931303626820578	0.965298176365113	-0.243979848046708	0.117216833335012	-0.253970566840263	-0.9600828949428	-0.988729967953647	0.0608143230252706	-0.136801566457982
38	0.0001	-9.48607360839844	-0.0143701171875	-0.13412109375	0.0930271919515444	0.965825442263992	-0.241923865365067	0.116600459475102	-0.251873404704222	-0.960710216898362	-0.988812557772102	0.0611637398976544	-0.136046765907633
39	0.0001	-9.56870178222656	-0.159268798828125	-0.0317340087890625	0.0922674940049072	0.966287979071898	-0.240362748884269	0.115401977826238	-0.250143033763082	-0.961306842882955	-0.989024313686902	0.0609590367455833	-0.13459161480272
40	0.0001	-9.63935485839844	-0.3879931640625	-0.075443115234375	0.0914975800714355	0.966792355695317	-0.238622576069765	0.114748265213516	-0.24826772944771	-0.961871077715391	-0.98917189025546	0.0606273493068758	-0.133653642092022
41	0.0001	-9.23220153808594	-0.357456665039063	-0.0173638916015625	0.0905349171343958	0.967293387076357	-0.23695343867059	0.113618127778487	-0.246409260844765	-0.962482933464302	-0.989390898391318	0.0602161065520338	-0.132210705663856
42	0.0001	-9.35434753417969	-0.44068359375	0.0796343994140625	0.0897369579965728	0.967740045583557	-0.23542829597025	0.112628312509624	-0.244725950940735	-0.963028593634367	-0.989576748711668	0.0599033647643201	-0.130955890662303
43	0.0001	-9.38248901367188	-0.432899780273438	0.140108642578125	0.0891020383837225	0.968133114654426	-0.234049351773053	0.111810399777967	-0.243220963423056	-0.963505058343262	-0.98972686194594	0.0596811131018929	-0.129918834206447
44	0.0001	-9.52978271484375	-0.248483276367188	0.106578369140625	0.0882773954765462	0.968512868856508	-0.232787294127522	0.111061530595249	-0.241812602195028	-0.963946057537199	-0.989885062959189	0.0592409341503399	-0.128911108331582
45	0.0001	-9.40224792480469	-0.362246704101563	0.118553466796875	0.0875846492384759	0.968897175467968	-0.2314458739921	0.110822558563795	-0.240373636816013	-0.964333383865361	-0.989973378294158	0.058811377249962	-0.128428704637302
46	0.0001	-9.54115905761719	-0.504151611328125	0.135917358398437	0.0868291166687877	0.969283454922439	-0.230109296883326	0.110152445002842	-0.238906439469108	-0.964774663867211	-0.99011471222198	0.0584234301784332	-0.127512977566096
47	0.0001	-9.41482177734375	-0.167052612304688	0.253273315429688	0.086213764262719	0.969651219196128	-0.228787455869229	0.109780677371744	-0.237490160375295	-0.965166631520546	-0.990209770567557	0.058094206564673	-0.126923888359
48	0.0001	-9.47349975585938	-0.441282348632813	0.142503662109375	0.0855195834769393	0.969999716331446	-0.227567465071008	0.109799595860046	-0.23618844857762	-0.96548385046435	-0.990267867594875	0.0575809610497311	-0.126704314581975
49	0.0001	-9.45793212890625	-0.30895751953125	0.116757202148438	0.0849485198737486	0.970313283348906	-0.226441783087675	0.109907369387173	-0.235001574030141	-0.965761166312742	-0.990305063667581	0.0571523609313054	-0.126607616336171
50	0.0001	-9.56930053710938	-0.283809814453125	0.037122802734375	0.0845048522159775	0.970704306248831	-0.224926832063077	0.10975233653266	-0.233428413304168	-0.966160235410214	-0.990360214557096	0.0569589825424823	-0.126262899262403
51	0.0001	-9.44356201171875	-0.37122802734375	0.15567626953125	0.0838676956643771	0.970965096643253	-0.224037922514258	0.109329028257547	-0.232438740801737	-0.966446788682524	-0.99046119217474	0.0565598167877171	-0.125648772062173
52	0.0001	-9.45972839355469	-0.280816040039063	-0.122744750976563	0.0834860065031477	0.971141692521316	-0.22341418881752	0.109601722867072	-0.231785228281145	-0.966572847898816	-0.99046330020992	0.056208727058097	-0.125789625723993
53	0.0001	-9.4220068359375	-0.161663818359375	0.0496966552734375	0.0834616839125863	0.971164064722998	-0.223326009925355	0.109330472836003	-0.231678991387512	-0.966629035700419	-0.990495328120195	0.0562601487766393	-0.125514145145871
54	0.0001	-9.59265197753906	-0.21076171875	0.15567626953125	0.0830366894581664	0.971339008818036	-0.222722783190725	0.108994713638335	-0.231006042949417	-0.966827989106516	-0.990568049455829	0.0560065895162954	-0.125052794163216
55	0.0001	-9.48727111816406	-0.152682495117188	0.0868194580078125	0.0822354201319115	0.971563411451386	-0.222040251316449	0.108529815985156	-0.230200117916901	-0.967072481644097	-0.990685931422242	0.0554296242093407	-0.124374201674042
56	0.0001	-9.45194458007813	-0.302969970703125	-0.089813232421875	0.0814026871310599	0.97179722838651	-0.221322726867667	0.10820850872798	-0.2293642094361	-0.96730707537401	-0.990789847125368	0.0547923929943707	-0.123827591849478
57	0.0001	-9.38548278808594	-0.257464599609375	0.065863037109375	0.0807983064805297	0.971868311933338	-0.221232045440354	0.107472713649046	-0.229158483944347	-0.96743785591491	-0.99091939606145	0.0543909321134755	-0.122964942211343
58	0.0001	-9.47409851074219	-0.183817749023438	0.047900390625	0.0801327417904852	0.972060683247119	-0.220628130070226	0.106517997600035	-0.228423223416049	-0.967717286810306	-0.99107651565377	0.0540449728408386	-0.121846136706154
59	0.0001	-9.51840637207031	-0.220341796875	0.177830200195313	0.0790206576991643	0.972399411113174	-0.219533871927646	0.10534180277352	-0.227134777355719	-0.968149212417173	-0.991291501146467	0.0533776936774237	-0.120382646475573
60	0.0001	-9.41182800292969	-0.314346313476562	0.328716430664063	0.0777337369572313	0.972742932352594	-0.21846888496246	0.104558567490677	-0.225877754856734	-0.968528133729309	-0.991476158111208	0.0524445175300318	-0.11926692952399
61	0.0001	-9.40105041503906	-0.367036743164063	0.278421020507813	0.0767213712902064	0.973050053164917	-0.217456720344768	0.103917328893737	-0.224715488819643	-0.968867451120193	-0.991622418031653	0.0517353179201674	-0.118357242857199
62	0.0001	-9.4220068359375	-0.250878295898438	0.199385375976563	0.076110578632386	0.973321112565538	-0.216455980870076	0.103405316314944	-0.223620035896711	-0.969175639450023	-0.991723005873137	0.0513818195448221	-0.117666427846746
63	0.0001	-9.40703796386719	-0.30416748046875	0.232915649414063	0.0757446973867442	0.973672604744151	-0.214998603689723	0.102961772586991	-0.22210275242321	-0.969571679016966	-0.991797163841244	0.0513032760822755	-0.11707416307491
64	0.0001	-9.45673461914063	-0.218545532226563	0.222138061523438	0.0749051595577984	0.974105094929389	-0.213327169165644	0.102658676590352	-0.220324318246199	-0.970009479804226	-0.991892339516915	0.050758829990001	-0.116503768118065
65	0.0001	-9.53636901855469	-0.460442504882813	0.209564208984375	0.0744770909216812	0.974474021112054	-0.211786555535398	0.102410534540913	-0.218727512873593	-0.970397010262901	-0.991950223218327	0.0505831720025187	-0.116086594261678
66	0.0001	-9.36632263183594	-0.220341796875	0.310155029296875	0.0741387493288439	0.974877647371635	-0.21004051633697	0.102403147775327	-0.216949004061367	-0.970796953519368	-0.991976330954353	0.0504648619529171	-0.115914867615909
67	0.0001	-9.38129150390625	-0.346679077148438	0.195194091796875	0.0738012354212868	0.975106260506428	-0.209096050587911	0.102604580409501	-0.215979442590064	-0.970991853960411	-0.9919806841513	0.0502061858704275	-0.115989918402688
68	0.0001	-9.49625244140625	-0.338895263671875	0.174237670898438	0.0736769147251278	0.975470742665703	-0.207433224050075	0.103097495139137	-0.214334117795697	-0.971304170919067	-0.991938818039007	0.0501768487647669	-0.116360066669867
69	0.0001	-9.48248107910156	-0.281414794921875	0.12214599609375	0.073237147803159	0.975773619889804	-0.206160527038537	0.103435712232307	-0.21303253633246	-0.971554523379288	-0.991936174164777	0.0498295212791376	-0.11653173470106
70	0.0001	-9.45134582519531	-0.352666625976563	0.0568817138671875	0.073036990034515	0.976030872264781	-0.205010571612169	0.103798971561314	-0.211882364470938	-0.971767275189393	-0.991912985896198	0.0496950703013354	-0.11678625089553
71	0.0001	-9.56870178222656	-0.276026000976562	0.020357666015625	0.0727380846338855	0.976250210863128	-0.204070323255226	0.103780378326808	-0.210910276926362	-0.971980703595082	-0.991936895229802	0.0495215193279011	-0.116656825798227
72	0.0001	-9.474697265625	-0.31853759765625	0.105979614257813	0.0723612222049758	0.976385604069383	-0.203555903100521	0.103813509510363	-0.210355647837906	-0.972097349377025	-0.991960991553672	0.049210299620722	-0.116583607969108
73	0.0001	-9.44775329589844	-0.264050903320313	-0.0748443603515625	0.0718821655054739	0.976530338989339	-0.203030665948794	0.103574222180259	-0.209764919945329	-0.972250512398983	-0.992020833844732	0.0488587289406589	-0.116221726988998
74	0.0001	-9.51481384277344	-0.259859619140625	0.104782104492188	0.0714211904047282	0.976648404976635	-0.202625039463947	0.103281579701451	-0.209293030308764	-0.972383331180943	-0.992084637949578	0.0485213408797525	-0.115817747446954
75	0.0001	-9.50044372558594	-0.245489501953125	-0.027542724609375	0.0709212581473679	0.976766859732944	-0.202229268085109	0.103155202520077	-0.208834789777754	-0.972495262081787	-0.992133649936256	0.0481095864243881	-0.11556940926663
76	0.0001	-9.49804870605469	-0.212557983398438	0.06945556640625	0.0705218472354598	0.976825511661796	-0.202085597777697	0.102731574563788	-0.208625044307343	-0.972585119398505	-0.992206073681342	0.0478279275573356	-0.115063446391228
77	0.0001	-9.52439392089844	-0.281414794921875	0.0221539306640625	0.0697632395580748	0.976881922207091	-0.202076224408867	0.102134633258243	-0.208499816979309	-0.972674839300781	-0.992321322503738	0.0472179667560421	-0.114319099540971
78	0.0001	-9.41901306152344	-0.240100708007813	0.0664617919921875	0.0691864594347552	0.97689984064123	-0.202187871016098	0.101728374263944	-0.208525742958437	-0.97271185476134	-0.992403431927005	0.046730245866795	-0.113805590463434
79	0.0001	-9.49804870605469	-0.370629272460938	0.06945556640625	0.0686844425742504	0.976998867598803	-0.201880311221577	0.101646370013439	-0.208158389192787	-0.972799105916404	-0.992446705275077	0.0462957635137405	-0.113605631327519
80	0.0001	-9.40883422851562	-0.225730590820313	0.144898681640625	0.0683194600874911	0.977062607261144	-0.201695594561232	0.101614230239359	-0.207931395818392	-0.972851007526784	-0.992475188398288	0.0459695129957921	-0.113489225430053
81	0.0001	-9.34476745605469	-0.327518920898438	-0.123343505859375	0.068292801609654	0.976974342029914	-0.202131710187987	0.101924672577445	-0.208376940313619	-0.97272319385605	-0.992445189604083	0.0458277837206905	-0.113808434972829
82	0.0001	-9.50104248046875	-0.0724493408203125	0.00718505859375	0.0677721360942124	0.977061309329248	-0.201886441795983	0.102293289825398	-0.208090157301686	-0.972745891428413	-0.992442955754095	0.0452734386365175	-0.114049530152915
83	0.0001	-9.39865539550781	-0.242495727539063	-0.05029541015625	0.067078943561855	0.977253808710075	-0.201185011102413	0.102528822354383	-0.207323187844266	-0.972884852574401	-0.99246574546291	0.0446328258543378	-0.114103702564849
84	0.0001	-9.55193664550781	-0.1580712890625	-0.120349731445313	0.0663975146127158	0.977457499159051	-0.200420077315093	0.102546585654223	-0.206484541300041	-0.97306131974032	-0.992509731853505	0.0440564585713082	-0.113944989509145
85	0.0001	-9.38428527832031	-0.210162963867188	-0.133522338867188	0.0661177583549475	0.977615948185994	-0.199738578853752	0.102573573229262	-0.205775342978832	-0.97320869822301	-0.99252561886588	0.0438584777932777	-0.113882965453831
86	0.0001	-9.57349182128906	-0.312550048828125	-0.0975970458984375	0.0658354196797161	0.977770536589023	-0.19907404475222	0.102428122588706	-0.205075170015702	-0.973371796563874	-0.992559407400156	0.0436915600710721	-0.113652410269238
87	0.0001	-9.513017578125	-0.132324829101563	-0.010777587890625	0.0654706428307333	0.977983994899636	-0.198143636404197	0.102216062644319	-0.204098106658515	-0.97359942450471	-0.992605395645633	0.0434887178306907	-0.113328107531271
88	0.0001	-9.53157897949219	-0.110769653320313	-0.15567626953125	0.065032118566942	0.978251729911101	-0.196962880971602	0.102077241920176	-0.202866797161735	-0.973871295034056	-0.992648507900287	0.043227485877363	-0.113050096099283
89	0.0001	-9.40763671875	-0.281414794921875	-0.0239501953125	0.0649422671125346	0.978478210554994	-0.195864477155459	0.101896374901136	-0.201755238814835	-0.974121117927733	-0.992672972697601	0.0433037536463756	-0.112805825185771
90	0.0001	-9.56271423339844	-0.149089965820313	-0.140108642578125	0.0646099908539962	0.978709718818698	-0.194814874616061	0.101783227637292	-0.200667828037306	-0.974357530561819	-0.992706262523603	0.0431243444079447	-0.112581380635535
91	0.0001	-9.53577026367187	-0.23710693359375	-0.123343505859375	0.0642957766480732	0.978963338565649	-0.19364099475478	0.101492966245053	-0.199451146406712	-0.97463758289932	-0.992756380441849	0.0430118813986071	-0.112181759437756
92	0.0001	-9.51241882324219	-0.19878662109375	-0.137114868164063	0.0638321218563531	0.97924810936708	-0.192350202808095	0.101310757978884	-0.198106097729968	-0.974930820294419	-0.992804910612886	0.0427447580786672	-0.111853900780153
93	0.0001	-9.4794873046875	-0.259260864257813	-0.092208251953125	0.0636123100863726	0.979427186685592	-0.19150942532059	0.101247722134747	-0.197241675007044	-0.9751126193435	-0.992825449295092	0.0426392732297695	-0.111711770241263
94	0.0001	-9.61540466308594	-0.147892456054688	-0.125139770507812	0.0632566366247566	0.979673221994424	-0.190365375081675	0.100940963377025	-0.196049730395333	-0.97538475748006	-0.992879408506109	0.0424838948188693	-0.11129060537879
95	0.0001	-9.53038146972656	-0.260458374023438	-0.0832269287109375	0.0628452652651125	0.97992989872274	-0.189176812064792	0.100874051293699	-0.194817650186241	-0.975638513462598	-0.992912331683595	0.0422312297376146	-0.111092865772268
96	0.0001	-9.50164123535156	-0.125139770507812	-0.182620239257813	0.0626132571445027	0.980054988225442	-0.188604878208878	0.100622700491281	-0.194211730607764	-0.975785261130839	-0.992952492406157	0.0421191613017944	-0.110776008574217
97	0.0001	-9.47709228515625	-0.1868115234375	-0.0999920654296875	0.0621886033122275	0.980269455100237	-0.187628284156626	0.100437112221147	-0.193184436571554	-0.976008278630467	-0.992997967826093	0.0418517486374998	-0.11046930356091
98	0.0001	-9.53038146972656	-0.139509887695313	-0.161065063476563	0.0617091704966349	0.980445932203451	-0.18686292383007	0.100361577518829	-0.192366181071631	-0.976177650910862	-0.993035513984545	0.0414852552796962	-0.110269857893393
99	0.0001	-9.52678894042969	-0.17483642578125	-0.216150512695313	0.0611652137455525	0.980593942906122	-0.186264155873552	0.100131837648983	-0.191700427439052	-0.976332198182935	-0.99309235809994	0.0410665953727689	-0.109914071110075
100	0.0001	-9.56810302734375	-0.273630981445313	-0.191002807617188	0.0607589348765553	0.980709966614605	-0.185785664719986	0.099748390321238	-0.191163531290124	-0.97647670885332	-0.993155884270435	0.0407978637611119	-0.109439133090231
101	0.0001	-9.48846862792969	-0.13172607421875	-0.131127319335938	0.0602580141032227	0.980839265847365	-0.18526550220788	0.099412136577968	-0.190577012000642	-0.976625634313328	-0.993220116005178	0.0404318818373459	-0.108991119334337
102	0.0001	-9.4890673828125	-0.1484912109375	-0.157472534179688	0.0598119638862143	0.981003580714447	-0.184538623603593	0.0992897771885946	-0.189799611913573	-0.976789459127859	-0.993259316151585	0.0401008970334997	-0.108755914483743
103	0.0001	-9.43038940429688	-0.163460083007813	-0.13651611328125	0.0592753544957445	0.981117260135082	-0.184106909741146	0.0991548567200837	-0.189305903132973	-0.976898965823912	-0.99330496159952	0.0396509382491778	-0.108503715870639
104	0.0001	-9.52499267578125	-0.185614013671875	-0.14130615234375	0.0590280011847274	0.981232845584476	-0.183569599395781	0.0989950266056419	-0.188737656845588	-0.977025118201055	-0.993335632997973	0.039499362458508	-0.108277978286849
105	0.0001	-9.41841430664063	-0.111967163085938	-0.147293701171875	0.0586102452394811	0.981335967132445	-0.183151736997488	0.0990445430461337	-0.188278218883431	-0.977108740512982	-0.993355433692166	0.0391284028080843	-0.108231005021379
106	0.0001	-9.61420715332031	-0.220341796875	-0.229323120117188	0.0581438282458347	0.98147561485195	-0.182551123491216	0.0990354464813063	-0.187629269885159	-0.977234484360131	-0.99338375040926	0.0387411219939254	-0.108110359769471
107	0.0001	-9.53277648925781	-0.109572143554688	-0.211959228515625	0.0578107703563326	0.981613905208449	-0.181912220403756	0.0988302639822015	-0.186949102388111	-0.977385600486056	-0.993423622505533	0.0385249817351938	-0.107820833006832
108	0.0001	-9.51182006835938	-0.1676513671875	-0.168848876953125	0.0577558491201	0.981662416913163	-0.181667721713639	0.0984954329546738	-0.186686736260077	-0.977469545403657	-0.993460070450488	0.0385611426797521	-0.107471515741354
109	0.0001	-9.44595703125	-0.0712518310546875	-0.226329345703125	0.0577309314099779	0.981816873649127	-0.180839061533702	0.0987082851523725	-0.185867202072622	-0.977604243871707	-0.993440392776947	0.0385876898965047	-0.107643746625788
110	0.0001	-9.46751220703125	-0.1963916015625	-0.217348022460938	0.0574806984365068	0.981827719007332	-0.180859889129987	0.098571560488165	-0.185855670310165	-0.977620231621915	-0.99346847799524	0.0383666522180279	-0.107463404130901
111	0.0001	-9.5561279296875	-0.16525634765625	-0.223335571289063	0.0569948681647262	0.981961421553624	-0.180286859153048	0.0985808277194001	-0.18523315592994	-0.977737438349577	-0.993495548761565	0.0379531885962128	-0.107359909027238
112	0.0001	-9.57169555664063	-0.0640667724609375	-0.267044677734375	0.0566473747408753	0.982101490820727	-0.17963222612514	0.098523566484649	-0.184541796197225	-0.977873934770452	-0.993521102836831	0.0376959836588503	-0.107213949810087
113	0.0001	-9.53397399902344	-0.233514404296875	-0.258662109375	0.0561401169080424	0.982238529219438	-0.179041221483731	0.0982276332699989	-0.183887759331765	-0.978026903530837	-0.993579196307836	0.0373197492593155	-0.106806446338673
114	0.0001	-9.52020263671875	-0.216749267578125	-0.211959228515625	0.055657792186588	0.982342031163276	-0.178623469843478	0.0979462544908213	-0.183409747400145	-0.978144874642726	-0.993634108412213	0.0369458843259181	-0.10642490418714
115	0.0001	-9.52259765625	-0.258063354492188	-0.262254638671875	0.055202405022058	0.982460156061409	-0.178114390860405	0.0975517026093776	-0.182839775380235	-0.978291000601006	-0.993698324340839	0.0366286539569464	-0.105933856304347
116	0.0001	-9.6519287109375	-0.111368408203125	-0.240699462890625	0.055079395575073	0.982573294996774	-0.1775274067356	0.0965453294892915	-0.182205097906674	-0.97850922410094	-0.993803431034975	0.0367562546514453	-0.104898609176239
117	0.0001	-9.41122924804688	0.013172607421875	-0.117954711914063	0.0549464726709358	0.982686202911796	-0.176942679271619	0.0958782640698883	-0.181584153930175	-0.978690223472375	-0.99387536624064	0.0368106186888991	-0.104195656012012
118	0.0001	-9.49685119628906	-0.18441650390625	-0.120948486328125	0.0545000428160157	0.982765505631635	-0.17664004719669	0.0955375464403778	-0.181223673111187	-0.978790354225175	-0.993932755548989	0.0364683595008907	-0.103767703078119
119	0.0001	-9.53756652832031	-0.131127319335938	-0.125139770507812	0.0542125371943321	0.982824268928803	-0.176401409335405	0.0950990231632148	-0.180940122315679	-0.978885513188233	-0.993990531446028	0.0362922655802982	-0.103274851027215
120	0.0001	-9.46751220703125	-0.0748443603515625	-0.16525634765625	0.0536966350937724	0.982881270128956	-0.176241539397774	0.0947074361947401	-0.180713415668451	-0.978965353282159	-0.994055920413447	0.0358757609972604	-0.102789867515441
121	0.0001	-9.53816528320313	-0.09580078125	-0.123942260742188	0.0533429498605382	0.982929253763646	-0.1760812647496	0.094315131586662	-0.180503324510954	-0.97904198367296	-0.994112260086338	0.035617859791624	-0.102333681698146
122	0.0001	-9.48667236328125	-0.067060546875	-0.149089965820313	0.0530396590555349	0.982990915471417	-0.175828480821337	0.0940466054636105	-0.180210900145733	-0.979121681646075	-0.994153926999258	0.0353962084033193	-0.102005283503474
123	0.0001	-9.49744995117188	-0.0137713623046875	-0.168250122070313	0.0525649407954324	0.983040904091879	-0.175691513401742	0.0935510703298039	-0.180008538362862	-0.97920637424223	-0.994225891957819	0.0350357959619568	-0.10142666691749
124	0.0001	-9.60702209472656	-0.200582885742188	-0.115559692382813	0.0521526600609935	0.983156799383342	-0.175165087488535	0.0936052376988475	-0.179444183309426	-0.979304776130371	-0.99424250538986	0.0346769794347308	-0.101387117393575
125	0.0001	-9.52439392089844	-0.017962646484375	-0.13172607421875	0.0518261564712924	0.983224270065492	-0.174883058812434	0.0931887701972067	-0.179115689164525	-0.979404626803575	-0.9942986988901	0.0344616402583732	-0.100908338288553
126	0.0001	-9.47110473632813	-0.1005908203125	-0.120948486328125	0.0514382346692668	0.983371732398403	-0.174167000128821	0.0931661330874101	-0.178362440983219	-0.97954423651617	-0.994320964105479	0.0341595603934095	-0.100791590790504
127	0.0001	-9.532177734375	-0.0963995361328125	-0.2251318359375	0.050985601354319	0.983534361400688	-0.173380011531545	0.092991917389712	-0.177526917546921	-0.979712558277413	-0.994360584373055	0.0338282942287833	-0.100512062733024
128	0.0001	-9.44296325683594	-0.11256591796875	-0.147293701171875	0.0505475300198482	0.98367876465692	-0.172687681008024	0.0926654067639624	-0.176782195660529	-0.979878144305052	-0.994413429916432	0.0335282457113187	-0.100088896194131
129	0.0001	-9.54355407714844	-0.12693603515625	-0.145497436523437	0.0501820080997093	0.983772977115833	-0.172257062437892	0.0923486706905765	-0.176306022199533	-0.979993831387658	-0.994461406533589	0.0332703476511573	-0.0996975169320022
130	0.0001	-9.57468933105469	-0.0604742431640625	-0.185614013671875	0.0498019625448307	0.983927847236589	-0.171481065890831	0.091754034459046	-0.175475325221029	-0.980198759129526	-0.994535550740732	0.0330817422598368	-0.0990183651747606
131	0.0001	-9.44356201171875	-0.061072998046875	-0.113763427734375	0.0494024932910516	0.984038105934906	-0.170963153119817	0.0911862827963457	-0.174901055403444	-0.980354365853769	-0.994607689235516	0.0328424555538052	-0.0983713252263271
132	0.0001	-9.44715454101563	-0.143102416992188	-0.073048095703125	0.0490533455789012	0.984127920839484	-0.170546195242437	0.0908565634522303	-0.174440473730304	-0.980467034633188	-0.994655143336205	0.0325999470690015	-0.0979713697257041
133	0.0001	-9.53337524414063	-0.0718505859375	-0.118553466796875	0.048674103924917	0.984209711281372	-0.17018247802446	0.0903379954441628	-0.174024067096131	-0.980588940713922	-0.99472100520007	0.0323553440834836	-0.0973819979411108
134	0.0001	-9.378896484375	-0.099393310546875	-0.11256591796875	0.0484126872244698	0.984293792338908	-0.169770262645722	0.0900687701171973	-0.173579174343819	-0.980692554720231	-0.994758175822286	0.032186963156063	-0.0970575655861462
135	0.0001	-9.55014038085938	-0.10777587890625	-0.08861572265625	0.0480909896027998	0.984389389050786	-0.169306784988798	0.0897560846229969	-0.173076092306245	-0.980810130221517	-0.994802041610376	0.0319718156541017	-0.0966783378612156
136	0.0001	-9.47110473632813	-0.044307861328125	-0.0844244384765625	0.0477232805265415	0.984467995187167	-0.168953410583941	0.0893755440027812	-0.172676295812572	-0.980915342421891	-0.994854009706948	0.0317121950771234	-0.0962280419285279
137	0.0001	-9.532177734375	-0.082628173828125	-0.132324829101563	0.0473574467505382	0.984581643386961	-0.168393170118928	0.0891189977343257	-0.172074732258489	-0.981044387762857	-0.994894505201481	0.0314527268070894	-0.0958939492163059
138	0.0001	-9.52439392089844	-0.087418212890625	-0.044307861328125	0.0470040270327775	0.984648416655263	-0.168101508086589	0.0890011918499242	-0.171746502228958	-0.981112596403395	-0.994921810642422	0.0311550084320675	-0.0957076598690139
139	0.0001	-9.52319641113281	-0.149089965820313	-0.12214599609375	0.0467755267456336	0.984739661702082	-0.167630095056159	0.0889061154483091	-0.1712519267318	-0.981207664170301	-0.994941080031155	0.0309931647547446	-0.0955597771288988
140	0.0001	-9.44356201171875	-0.0353265380859375	-0.0544866943359375	0.0464849613547281	0.984835493871634	-0.167147235629142	0.0888780930516091	-0.170742136879597	-0.981299040695189	-0.994957201563645	0.0307599204225815	-0.0954672422993221
141	0.0001	-9.41661804199219	-0.0760418701171875	-0.21076171875	0.0461629678793453	0.984939508082713	-0.166622764994325	0.0889119972646977	-0.17018981777653	-0.981391910842755	-0.994969163913623	0.0304892004318715	-0.0954294059399522
142	0.0001	-9.51541259765625	-0.0293389892578125	-0.199385375976563	0.0458108352947364	0.985030836699274	-0.166179475631403	0.0887944575231592	-0.169710921176035	-0.981485480048864	-0.994995935510677	0.0302068532805201	-0.0952398778460086
143	0.0001	-9.52379516601563	-0.068258056640625	-0.24908203125	0.0454279045451842	0.985108443632407	-0.165824183317063	0.0889485435010587	-0.169325025651437	-0.9815381766886	-0.994999729697287	0.0298394030147583	-0.0953160423541014
144	0.0001	-9.51361633300781	-0.0640667724609375	-0.304766235351562	0.0450384228546867	0.985170332814602	-0.165562543495591	0.0890792512268069	-0.169031046670317	-0.981576992529067	-0.995005742429477	0.0294604922481631	-0.095371127333497
145	0.0001	-9.55912170410156	-0.0425115966796875	-0.271235961914063	0.0448157534078104	0.985262209631603	-0.165075517622517	0.0885549115016614	-0.168509081825193	-0.981714172756696	-0.995062598983312	0.0293780124290634	-0.0948016692379122
146	0.0001	-9.50643127441406	0.0221539306640625	-0.1916015625	0.0444396312701734	0.985384971299017	-0.16444323491894	0.0881720318770756	-0.167832192225679	-0.981864577244434	-0.995113466880656	0.0291344056187451	-0.0943417958383422
147	0.0001	-9.49924621582031	0.0041912841796875	-0.171243896484375	0.0440085569666367	0.985499632635078	-0.163871049883258	0.0878737536163429	-0.167212722440211	-0.981997000443233	-0.99515900756567	0.0288163066727796	-0.0939583425282277
148	0.0001	-9.53756652832031	-0.0389190673828125	-0.165855102539063	0.0435449889824771	0.985649120270184	-0.163093977954823	0.0873736834841982	-0.16638051855352	-0.982182957742734	-0.995223428868573	0.0285190244656806	-0.0933648321082773
149	0.0001	-9.48547485351563	-0.0413140869140625	-0.193397827148438	0.0430583814097208	0.985759567263937	-0.162554764119635	0.0870904453977089	-0.165789737315724	-0.982308005322777	-0.995269425889695	0.0281396259463115	-0.0929888775112268
150	0.0001	-9.4411669921875	-0.086220703125	-0.135318603515625	0.0427543625278283	0.985864574093831	-0.161997240814861	0.0869436428824427	-0.165201756937369	-0.982420064161526	-0.995295366937458	0.027918113324426	-0.0927777532668
151	0.0001	-9.61121337890625	-0.06466552734375	-0.176033935546875	0.0423158332656378	0.986010777727633	-0.161220707292776	0.086904857824276	-0.164386152053073	-0.982560297742447	-0.995317495044459	0.0275669950870968	-0.0926452634530813
152	0.0001	-9.53157897949219	-0.053887939453125	-0.13172607421875	0.0418266728163521	0.986110872531394	-0.160735423962754	0.0863385228106177	-0.163841757177291	-0.982701143829566	-0.995387456682067	0.0272254601509315	-0.0919923116329605
153	0.0001	-9.47529602050781	-0.0844244384765625	-0.2251318359375	0.0415612547195235	0.986273849485451	-0.159801614282486	0.0863531828950543	-0.162887141138636	-0.98285853867969	-0.995397302543076	0.0270494560542647	-0.091937680072624
154	0.0001	-9.50643127441406	-0.131127319335938	-0.192200317382813	0.0413041013766272	0.986294746527499	-0.159739300679971	0.0858479543290685	-0.16278775557831	-0.982919261878254	-0.99545170648655	0.0268853046483273	-0.0913951883141729
155	0.0001	-9.49325866699219	-0.0526904296875	-0.120349731445313	0.0408359389557724	0.986397213840471	-0.159226136728102	0.0860623365470632	-0.162239233624875	-0.982991203063829	-0.99545251032767	0.0264379953961932	-0.0915168404271609
156	0.0001	-9.52798645019531	-0.0688568115234375	-0.1963916015625	0.0404373030305575	0.986487722173804	-0.158766490557532	0.0860126258443564	-0.16174336743188	-0.983077266183668	-0.995473079856494	0.0260970705661741	-0.0913908649094123
157	0.0001	-9.56690551757813	-0.00239501953125	-0.188009033203125	0.0399013576096421	0.986574740085348	-0.158360866019469	0.0856510844362102	-0.161280830778351	-0.983184817497883	-0.995525877813233	0.0256666290925288	-0.0909365204701493
158	0.0001	-9.50643127441406	-0.140707397460937	-0.17004638671875	0.0394701866670047	0.986667777667505	-0.157888571078276	0.0853259869467983	-0.160762663154329	-0.983297941667266	-0.995570982058049	0.0253389551520147	-0.0905337342418698
159	0.0001	-9.5273876953125	-0.117954711914063	-0.21315673828125	0.0388574615762347	0.986753343690556	-0.157505353545075	0.0847537609334977	-0.160310998663161	-0.983421162938467	-0.995643961307193	0.0248640789720321	-0.0898603354622803
160	0.0001	-9.44655578613281	-0.0640667724609375	-0.137713623046875	0.0384280262646544	0.986822997243454	-0.157173976563706	0.0844754408491727	-0.159935285286719	-0.983506280820613	-0.995684280628524	0.0245168642305903	-0.0895083050758856
161	0.0001	-9.47709228515625	-0.101189575195313	-0.199385375976563	0.0378699574867295	0.986953028293678	-0.156491489423205	0.0840774377482179	-0.159195508732255	-0.983660395899506	-0.995739348816571	0.0240937739139883	-0.0890092089445453
162	0.0001	-9.57409057617187	-0.0496966552734375	-0.138312377929688	0.0374785635984807	0.98704430148946	-0.156009307952377	0.0836695305683429	-0.158670339419904	-0.983780022689445	-0.995788515160256	0.0238174365866137	-0.0885322697629225
163	0.0001	-9.50882629394531	-0.0987945556640625	-0.223335571289063	0.0371344409855138	0.987108492765829	-0.155685120683597	0.083197787565106	-0.158305588762449	-0.983878787610977	-0.995840931794313	0.023583131177757	-0.0880038322284197
164	0.0001	-9.47529602050781	-0.07903564453125	-0.19399658203125	0.0366764335917047	0.987188485611073	-0.155285971986876	0.0828962434251775	-0.157860402468246	-0.983975765026028	-0.995883051389563	0.0232160980674846	-0.0876239735776343
165	0.0001	-9.50104248046875	-0.0928070068359375	-0.16046630859375	0.036138537937639	0.987266325666762	-0.154916778562497	0.0825581570146381	-0.157437543333657	-0.984071933681379	-0.995930799195444	0.0227732771799456	-0.0871964509622333
166	0.0001	-9.47709228515625	-0.0335302734375	-0.201780395507813	0.0356862086535151	0.987343057653317	-0.154532135867385	0.0821385422875845	-0.157005255511862	-0.984176107011609	-0.995981804242833	0.0224284695298868	-0.0867018418013049
167	0.0001	-9.4890673828125	-0.1676513671875	-0.13172607421875	0.0351018943550114	0.987353864826904	-0.154596903669077	0.0815913654718311	-0.157007113942523	-0.984221324322879	-0.99604754208478	0.021934260480254	-0.0860707971617124
168	0.0001	-9.59564575195312	-0.125139770507812	-0.116757202148438	0.0347544980558946	0.987373726639557	-0.154548532205244	0.0812116955654599	-0.156920738673388	-0.984266499621714	-0.996090751572499	0.0216565398000442	-0.0856399960043392
169	0.0001	-9.46751220703125	-0.0592767333984375	-0.120948486328125	0.0342839242239751	0.987404427093683	-0.154457469536439	0.0813765136260869	-0.156793156557174	-0.984273218718716	-0.996093607835061	0.0211755380718576	-0.0857270145140916
170	0.0001	-9.55912170410156	-0.179027709960938	-0.192200317382813	0.0337113202636051	0.987509661464044	-0.153909763826908	0.0814421727169984	-0.156199457953472	-0.984362180215278	-0.996107785025907	0.0206494031441941	-0.08569062236073
171	0.0001	-9.55552917480469	-0.037122802734375	-0.2347119140625	0.0333100586383455	0.987614189098593	-0.153325319124528	0.0809273709373842	-0.155571970198658	-0.984503998326909	-0.996163239949494	0.0203856709390713	-0.0851071312740059
172	0.0001	-9.52379516601563	-0.13172607421875	-0.241298217773438	0.032882485783936	0.987683810627225	-0.152968729986079	0.0803758589986409	-0.155169013307872	-0.984612765811663	-0.996222095427972	0.0200815222019216	-0.0844882775724175
173	0.0001	-9.48008605957031	-0.09819580078125	-0.180225219726562	0.0325691425746352	0.987705055648563	-0.152898574219061	0.0796802404314901	-0.155058744185652	-0.984686673585232	-0.996288266636084	0.0198874055079337	-0.083750706656302
174	0.0001	-9.51960388183594	-0.0856219482421875	-0.147293701171875	0.0322838559082093	0.987745991193011	-0.152694497379027	0.079286355159511	-0.154823619633485	-0.984755462380944	-0.996328975054534	0.0196851133022317	-0.0833130828925469
175	0.0001	-9.53157897949219	-0.08382568359375	-0.2347119140625	0.0319908893409014	0.987843296715994	-0.152125619579526	0.0789514821117719	-0.154225506095419	-0.98487621391826	-0.996365016683912	0.0194965228409696	-0.0829255034689494
176	0.0001	-9.55253540039063	-0.068258056640625	-0.13412109375	0.0317203173447235	0.987915157338753	-0.151715072975292	0.0782825216673883	-0.15378078034052	-0.984999146395191	-0.996426449001102	0.0193678470204792	-0.0822144648638323
177	0.0001	-9.48667236328125	-0.0401165771484375	-0.123942260742188	0.0313579550267203	0.987969382328637	-0.151437043809345	0.0777289642611384	-0.153463176402091	-0.985092514235831	-0.996481252594063	0.0191194421924968	-0.0816061281939959
178	0.0001	-9.47529602050781	-0.092208251953125	-0.13172607421875	0.0311451348098021	0.98802803609639	-0.151097916812872	0.0773901975962458	-0.153101216808021	-0.985175504531003	-0.996514293873245	0.0189899262614038	-0.0812320429811609
179	0.0001	-9.48307983398437	-0.0041912841796875	-0.1005908203125	0.0308645894927743	0.98807882670508	-0.150823106096363	0.0770700930013982	-0.152798377805318	-0.985247611773213	-0.996547830201942	0.01878531227251	-0.0808673862729958
180	0.0001	-9.5369677734375	-0.0622705078125	-0.202379150390625	0.0305875834443063	0.98810730004238	-0.150692943902477	0.0767028872816654	-0.152639345731677	-0.985300917089425	-0.996584701278167	0.0185793901289301	-0.0804595515817932
181	0.0001	-9.47409851074219	-0.0676593017578125	-0.0065863037109375	0.0303047507277238	0.988196419737	-0.150164769844012	0.0764377090302842	-0.152085024400961	-0.985407236624108	-0.996613715900766	0.0183842696872525	-0.0801443691505163
182	0.0001	-9.48966613769531	-0.103584594726563	-0.167052612304688	0.0299901659707849	0.98821879648877	-0.150080645692011	0.0761887725431102	-0.151971398410558	-0.985444044582702	-0.996642293344718	0.018119170274205	-0.0798488245696539
183	0.0001	-9.532177734375	0.0089813232421875	-0.105380859375	0.0297172725929649	0.988264984285328	-0.149830586147007	0.075785649740906	-0.15169300518588	-0.985518019861141	-0.99668120229238	0.0179318993192811	-0.0794042063358049
184	0.0001	-9.53756652832031	-0.020357666015625	-0.139509887695313	0.0291635488861487	0.988380632305542	-0.149175108847497	0.0755617064928933	-0.150991465785582	-0.98564294030435	-0.996714560909114	0.017472920283073	-0.0790871742353604
185	0.0001	-9.45374084472656	-0.0449066162109375	-0.1772314453125	0.0287602861055031	0.988496993793709	-0.148480770485371	0.0753100661381358	-0.150262828354668	-0.985773542124724	-0.996745323481078	0.0171690324612476	-0.0787653759144549
186	0.0001	-9.57888061523438	0.0017962646484375	-0.173040161132813	0.0283158225587347	0.988583944553338	-0.147986481694058	0.0750143292094393	-0.149729911900465	-0.985877174852698	-0.996780349227492	0.0168148164914909	-0.0783976870849987
187	0.0001	-9.50523376464844	-0.051492919921875	-0.246088256835938	0.0279602213717908	0.988649758822262	-0.147613957339825	0.0745669843693045	-0.149323110382662	-0.985972805683664	-0.996823951790339	0.0165608902638311	-0.0778957383350398
188	0.0001	-9.48188232421875	-0.009580078125	-0.12214599609375	0.0274927258020482	0.988724773226532	-0.147198752834785	0.0740415611305464	-0.148864092851418	-0.986081806487107	-0.996876119311384	0.0162112512677813	-0.0772994054246724
189	0.0001	-9.48008605957031	-0.068258056640625	-0.09580078125	0.0270218673243218	0.988826503002827	-0.14660138350475	0.073708351407647	-0.148226640568283	-0.986202789470101	-0.996913686142925	0.0158432946397216	-0.0768901319798931
190	0.0001	-9.53816528320313	-0.01197509765625	-0.0700543212890625	0.0265326801767556	0.988880877369794	-0.146323707084614	0.0730993410101756	-0.147902666698073	-0.986296754292275	-0.996971666210488	0.0154729297789576	-0.0762107946260853
191	0.0001	-9.48607360839844	-0.029937744140625	-0.080233154296875	0.0261394709491545	0.988965579306371	-0.145821161035399	0.0727356130372558	-0.147365941710844	-0.986403979016595	-0.997008655255607	0.0151776866119205	-0.0757850854358392
192	0.0001	-9.50762878417969	-0.0820294189453125	-0.118553466796875	0.0257079547167364	0.989028368872231	-0.145471600768728	0.0721362901158678	-0.146975677196545	-0.986506211820755	-0.997063416595254	0.0148672754245945	-0.0751232814036212
193	0.0001	-9.46811096191406	-0.0269439697265625	-0.049097900390625	0.0252724870450455	0.989098912173105	-0.145067719829529	0.0716794518529896	-0.146533472021974	-0.986605289748256	-0.997107495499163	0.0145355947647924	-0.0746013331262972
194	0.0001	-9.52379516601563	-0.0556842041015625	-0.117954711914063	0.0247778370137676	0.98918469048251	-0.144567309264372	0.0714686429632663	-0.145994448216015	-0.986700488579534	-0.997135041940614	0.0141162744774526	-0.0743131141116344
195	0.0001	-9.47828979492188	-0.05508544921875	-0.06945556640625	0.0240139879821597	0.989227414504175	-0.144403776870888	0.0716114681575521	-0.14577650179075	-0.986722356670797	-0.997143483160529	0.0133541723456011	-0.0743407026564278
196	0.0001	-9.47290100097656	-0.17244140625	-0.123942260742188	0.0235991943275013	0.989282182847961	-0.144096636763895	0.0716973310389702	-0.145440423888194	-0.986765714757617	-0.997147216186748	0.0129555315906174	-0.0743611689810167
197	0.0001	-9.55073913574219	-0.025147705078125	-0.00239501953125	0.0234308695462966	0.989307508594775	-0.143950157312533	0.0713436302672047	-0.145277249175934	-0.986815386631243	-0.997176554463953	0.0128520157902234	-0.0739847613872411
198	0.0001	-9.52798645019531	-0.0568817138671875	-0.058677978515625	0.0230262722888018	0.989440134502418	-0.143101401182237	0.0713630299580496	-0.144400947266448	-0.986942594269676	-0.997184591106225	0.012513459329463	-0.0739344614907106
199	0.0001	-9.49984497070313	-0.105380859375	-0.188009033203125	0.0226470674085306	0.989559743319583	-0.142332795725634	0.0712726112993093	-0.143605144604504	-0.987065234582648	-0.997199741885432	0.012209702879313	-0.0737807423331307
200	0.0001	-9.53756652832031	0.0053887939453125	-0.116158447265625	0.0222469161653153	0.989645800355554	-0.141796560465154	0.0710666157164136	-0.14303829152414	-0.987162389522854	-0.997223450813181	0.0118843172487806	-0.0735129386691978
201	0.0001	-9.49685119628906	-0.123942260742188	-0.183817749023438	0.0219464004130142	0.989713391522465	-0.141370994726686	0.0708460841531138	-0.142589130903597	-0.98724321831468	-0.99724580112883	0.0116508535849505	-0.0732466363846183
202	0.0001	-9.58666442871094	-0.04550537109375	-0.16525634765625	0.0215358227301869	0.989744493767206	-0.141216307120785	0.0705604756369405	-0.142401531322126	-0.987290749047616	-0.997275000998833	0.011297828756508	-0.0729035763743173
203	0.0001	-9.47649353027344	-0.0197589111328125	-0.18441650390625	0.020956498761373	0.989809843137913	-0.140844948744942	0.0703883177223069	-0.141987016567094	-0.987362735702842	-0.997299508617089	0.0107778269459412	-0.0726466004602774
204	0.0001	-9.49924621582031	-0.0784368896484375	-0.16046630859375	0.0205975456779629	0.989903093309935	-0.140241245600095	0.0698699117660186	-0.141353274394595	-0.987490479573214	-0.997343439614386	0.0105412368035272	-0.0720759723125459
205	0.0001	-9.54774536132813	-0.0616717529296875	-0.1149609375	0.0202028490864264	0.989966263354428	-0.139852215959785	0.0696608834344461	-0.140934614566468	-0.987565084303882	-0.997366134480174	0.0102093994471916	-0.0718092052247068
206	0.0001	-9.49744995117188	-0.12214599609375	-0.173040161132813	0.0199943015617714	0.990058979633642	-0.139224440210216	0.069286304553254	-0.140289602977522	-0.987683266689156	-0.997396428661348	0.0101016901160372	-0.0714025206164942
207	0.0001	-9.46930847167969	-0.046702880859375	-0.159268798828125	0.0197087043708197	0.990124747601782	-0.138796798084582	0.0688487377621101	-0.13983826251155	-0.987777865537751	-0.997432412888506	0.00991183758237668	-0.0709248700749795
208	0.0001	-9.44655578613281	-0.063468017578125	-0.1580712890625	0.0193780496577659	0.990190458841641	-0.138373936890015	0.0684627794021892	-0.139389225221029	-0.987868155033256	-0.997465457561308	0.00966949384724652	-0.0704922822779184
209	0.0001	-9.52319641113281	-0.116757202148438	-0.092208251953125	0.0189706286662759	0.990294968093892	-0.137680759062127	0.0681752799133325	-0.138666270742964	-0.987989775537671	-0.997492980655375	0.00935636287006164	-0.0701442229773678
210	0.0001	-9.47649353027344	-0.0383203125	-0.0269439697265625	0.0185915671294192	0.990410589528823	-0.136898567490098	0.0681613254591332	-0.137859192175688	-0.988103677173767	-0.997501071349463	0.00903920803142028	-0.0700707169567878
211	0.0001	-9.57828186035156	-0.161065063476563	-0.2059716796875	0.0182353532558923	0.99048801620111	-0.136385342517525	0.0679484016944553	-0.13732034333376	-0.988193370759928	-0.997522173487287	0.00875288916232148	-0.0698061625682884
212	0.0001	-9.5034375	0.0209564208984375	-0.167052612304688	0.0180394494030702	0.990584877641334	-0.135706221130567	0.0678764725902897	-0.136628500286192	-0.988294205881146	-0.99753063247899	0.00861702372343953	-0.0697021102135074
213	0.0001	-9.49086364746094	-0.103584594726563	-0.144299926757813	0.0175002666517877	0.990717350795644	-0.134806793224881	0.0676761835295497	-0.135691949259381	-0.988436962627898	-0.997553845589295	0.00817470113515434	-0.0694226145528956
214	0.0001	-9.50942504882813	-0.0556842041015625	-0.169447631835938	0.0171191396094202	0.990835679651543	-0.133983547454524	0.0674777250648076	-0.134842582321612	-0.988566757792774	-0.997573902865904	0.00788250736154245	-0.069167726567987
215	0.0001	-9.52678894042969	-0.105979614257813	-0.147293701171875	0.0167578220417482	0.99092668180865	-0.133354739998683	0.0670689586537542	-0.134187117505989	-0.988683757467743	-0.997607603311802	0.00762422291995751	-0.0687091044865866
216	0.0001	-9.52199890136719	-0.106578369140625	-0.177830200195313	0.0163876259672497	0.990978274240659	-0.133016937636387	0.0666100130004683	-0.133821286796797	-0.988764364936423	-0.997644501755628	0.00734324063708086	-0.0682020889248337
217	0.0001	-9.54115905761719	-0.0041912841796875	-0.220341796875	0.0160801997289768	0.991072631478923	-0.132349787722227	0.066314064045123	-0.133132557669768	-0.98887722544213	-0.997669219775019	0.00712469099317575	-0.0678628520750213
218	0.0001	-9.52080139160156	-0.0622705078125	-0.0856219482421875	0.0156831217499456	0.991164490822063	-0.131707979354393	0.0657775856138342	-0.13246157049042	-0.989003155492452	-0.997711054826492	0.00684722401065974	-0.0672738180896308
219	0.0001	-9.48427734375	-0.0832269287109375	-0.175435180664062	0.0153346781102917	0.991219259785595	-0.131336311343631	0.0652492500644465	-0.132063802931044	-0.989091344275855	-0.997751162872428	0.00659780156474304	-0.0667014692584141
220	0.0001	-9.4794873046875	-0.092208251953125	-0.11256591796875	0.0149451850806229	0.991293661496207	-0.13081864592003	0.0647458293934136	-0.131518108846394	-0.989197131325009	-0.997789867165961	0.00631377247865761	-0.0661476927641682
221	0.0001	-9.48667236328125	-0.0101788330078125	-0.189805297851562	0.0145637493179018	0.991376254151116	-0.130234480500011	0.0643950566654316	-0.130907847545454	-0.989300971458167	-0.997818206830714	0.00602147459668223	-0.0657462391382225
222	0.0001	-9.48547485351563	-0.0868194580078125	-0.17483642578125	0.0142634396442843	0.991453081977615	-0.129681689249499	0.0641008267611457	-0.130334769861193	-0.989395740729546	-0.997841489565378	0.00579948293553273	-0.0654119843731176
223	0.0001	-9.51900512695313	-0.0245489501953125	-0.156275024414063	0.0139049231979637	0.991536774945046	-0.129079343980503	0.0640446765258925	-0.129709921951649	-0.9894814882331	-0.997850155343753	0.00549181926828224	-0.0653062585176335
224	0.0001	-9.49086364746094	-0.118553466796875	-0.123343505859375	0.0136858402320962	0.99159924523145	-0.128622061224196	0.063586712055559	-0.12923683367762	-0.989572923473024	-0.997882471951034	0.00536448295760467	-0.0648212503388556
225	0.0001	-9.57888061523438	-0.0305364990234375	-0.16525634765625	0.0134098607492629	0.991707613093209	-0.127813089187515	0.0636119453574955	-0.128411759991375	-0.989678705592756	-0.997884610585072	0.00514101438314069	-0.0648064343147496
226	0.0001	-9.45912963867188	-0.039517822265625	-0.253273315429688	0.0132609957122787	0.991728946878231	-0.12766300136106	0.0634077826369143	-0.128251306309953	-0.989712612595626	-0.997899593693568	0.00502974687094043	-0.0645840735214612
227	0.0001	-9.52020263671875	-0.0532891845703125	-0.138312377929688	0.0128653025116272	0.991832215969995	-0.126898933625672	0.0631986457075494	-0.127462260923267	-0.98982791596371	-0.997918040307928	0.00471459482645187	-0.064322293364015
228	0.0001	-9.47349975585938	-0.0461041259765625	-0.156275024414063	0.0124526791535495	0.99188372862955	-0.126536949788746	0.0629496151705909	-0.12707339323177	-0.989893781515188	-0.997939014535344	0.00436137736324044	-0.0640211032060689
229	0.0001	-9.48307983398437	-0.0963995361328125	-0.253273315429688	0.0120401470816766	0.991931226486893	-0.126204107613264	0.0628095110111667	-0.12671425879566	-0.989948716825475	-0.997952904793002	0.00399230986710558	-0.0638283736055937
230	0.0001	-9.53577026367187	-0.104782104492188	-0.192200317382813	0.0116839739878581	0.991977944441904	-0.125869942768981	0.0624166147396	-0.126356584078169	-0.990019282572085	-0.997981788890108	0.00371098381994306	-0.0633922522299745
231	0.0001	-9.4651171875	-0.0604742431640625	-0.22752685546875	0.0113298559802879	0.992045276326488	-0.125370666751714	0.0619801460341594	-0.125834357434223	-0.990113213721896	-0.998013073993047	0.00344734788197792	-0.0629127962463155
232	0.0001	-9.52678894042969	0.0736468505859375	-0.174237670898438	0.0109258212947854	0.992107676428925	-0.124911908158649	0.0616220215627127	-0.125349971230688	-0.990197006242187	-0.998039755163871	0.00312139123884153	-0.0625052320144087
233	0.0001	-9.49086364746094	-0.0149688720703125	-0.211959228515625	0.0105356624101992	0.992160504225465	-0.124525233076067	0.0613680273238084	-0.124938956724369	-0.990264723351797	-0.998059599943792	0.00279122691604822	-0.0622032476028422
234	0.0001	-9.53876403808594	-0.065863037109375	-0.183817749023438	0.0100754081127641	0.992215655369102	-0.124123242754229	0.0609345406487086	-0.124508081053145	-0.99034575755561	-0.998090911644472	0.00241474489906002	-0.061714674914321
235	0.0001	-9.44236450195313	-0.0676593017578125	-0.133522338867188	0.00960656170847529	0.992253621538589	-0.123856628872642	0.0605259846392652	-0.124212232654978	-0.990407959601655	-0.998120393116777	0.00201787076386173	-0.0612503799334476
236	0.0001	-9.54475158691406	-0.0796343994140625	-0.212557983398438	0.00910701591983787	0.992329712353102	-0.12328343052595	0.0600862979127642	-0.123608820000283	-0.990510220250794	-0.998151641317177	0.00161294741029633	-0.060751126215711
237	0.0001	-9.43996948242188	-0.07903564453125	-0.119152221679688	0.008699362996199	0.992390106773046	-0.122825881077417	0.0596367118803263	-0.12312678455155	-0.990597424548489	-0.998182239713552	0.00129263489798603	-0.0602540074638791
238	0.0001	-9.46451843261719	-0.0604742431640625	-0.102387084960937	0.00831414064688929	0.992437126798318	-0.122472137311322	0.0591346964324481	-0.122749993132423	-0.990674278894851	-0.998215388953279	0.000994252628649162	-0.059708028928817
239	0.0001	-9.56151672363281	-0.08861572265625	-0.142503662109375	0.00807005445044795	0.992474966627494	-0.122181483208058	0.0586847670517702	-0.122444925530012	-0.990738784104079	-0.998243944302818	0.000825124053785653	-0.059231299437456
240	0.0001	-9.42380310058594	0.02634521484375	-0.183218994140625	0.007776350091523	0.992535118368554	-0.121710998617113	0.0583743786751329	-0.121957692008176	-0.990817214865755	-0.998264474121736	0.000600137617299989	-0.0588870065574236
241	0.0001	-9.52319641113281	-0.082628173828125	-0.0814306640625	0.00741912418437951	0.992568950200676	-0.121457135211828	0.0581161682414254	-0.121683168118483	-0.990866145140495	-0.998282258474662	0.000292735676802602	-0.0585870866364971
242	0.0001	-9.45912963867188	-0.027542724609375	-0.226329345703125	0.00731959636271517	0.992597506324504	-0.121229591880296	0.0579230998528367	-0.121450142279029	-0.990906038655453	-0.998294214153586	0.000231038480733747	-0.0583832904921876
243	0.0001	-9.48248107910156	-0.0592767333984375	-0.12693603515625	0.00698778679263568	0.99267656420578	-0.120600206104088	0.0575494535398926	-0.120802477770164	-0.991006973619182	-0.998318201393223	-1.55305164228348e-05	-0.0579721357705806
244	0.0001	-9.50104248046875	-0.005987548828125	-0.0952020263671875	0.00666161815023925	0.99272883024956	-0.120187738288729	0.0572251700065224	-0.120371897248565	-0.991078143372411	-0.998339072039828	-0.000275579608076892	-0.057610947696897
245	0.0001	-9.54056030273438	-0.110769653320313	-0.18920654296875	0.0063320172249629	0.992780678485838	-0.119776583617423	0.0567860478796228	-0.119942686909236	-0.991155435147892	-0.998366290658933	-0.000525625524184781	-0.0571355703019786
246	0.0001	-9.52020263671875	-0.0736468505859375	-0.1484912109375	0.00603185841073328	0.992815839930572	-0.119500312414097	0.056316823327589	-0.119650089807946	-0.991217570172785	-0.998394727597458	-0.00075099394430328	-0.0566339466547546
247	0.0001	-9.47529602050781	-0.0425115966796875	-0.1963916015625	0.0057722582973071	0.992862202055652	-0.119127363621252	0.0558567890680067	-0.119263485356155	-0.99129018969004	-0.998422105198579	-0.000932088999542668	-0.056146514236732
248	0.0001	-9.50882629394531	0.05029541015625	-0.14130615234375	0.00548527253722664	0.992920820505033	-0.118651405355373	0.055525003833061	-0.118772561030266	-0.991367768638687	-0.998442229542867	-0.00115019734154981	-0.0557834322316634
249	0.0001	-9.55672668457031	-0.0628692626953125	-0.137114868164063	0.0051225990845658	0.992962870322138	-0.118315244749951	0.0550241967002559	-0.118417435713442	-0.991438171898049	-0.998471880803917	-0.00143146102799191	-0.0552435893404379
250	0.0001	-9.5465478515625	-0.003592529296875	-0.0544866943359375	0.00471549166596763	0.993010500187289	-0.117931805108453	0.0546549311327794	-0.118012767189894	-0.991506845807459	-0.998494167554933	-0.00177011241841207	-0.0548294087220246
251	0.0001	-9.57947937011719	-0.0676593017578125	-0.185015258789062	0.00432481228713733	0.993058485971302	-0.117542075186151	0.0541452480528946	-0.117603290535169	-0.991583460011608	-0.998523704331535	-0.00207593248602583	-0.0542780102098622
252	0.0001	-9.49325866699219	-0.013172607421875	-0.087418212890625	0.00401018086611749	0.993097428180149	-0.117223788504704	0.053689002130626	-0.117269475676667	-0.991647800947865	-0.998549652996604	-0.00231694119350051	-0.0537886817450214
253	0.0001	-9.48487609863281	-0.06945556640625	-0.096998291015625	0.00365377084000074	0.993134427364545	-0.116921593993352	0.0531804252342021	-0.116949895346594	-0.991712944530992	-0.998578235458073	-0.00259444824924893	-0.0532426192793305
254	0.0001	-9.4890673828125	-0.01676513671875	-0.099393310546875	0.00329098943316253	0.993173314670456	-0.116601614118543	0.0526841791122653	-0.116612510745314	-0.991779158688536	-0.99860580143509	-0.00287912559172587	-0.0527082913402579
255	0.0001	-9.4890673828125	0.029937744140625	-0.111368408203125	0.0029297520957533	0.993210711705835	-0.116292298564633	0.0521884611014494	-0.116286181203915	-0.991843681528936	-0.998632956135797	-0.0031632599954195	-0.052174828276492
256	0.0001	-9.4794873046875	-0.0017962646484375	-0.07424560546875	0.00248642263971033	0.993278898387639	-0.115718830448182	0.0516613586624119	-0.11569225221057	-0.991940727462886	-0.998661565157892	-0.0035118081217641	-0.0516017972565445
257	0.0001	-9.45314208984375	0.037122802734375	-0.159268798828125	0.00202538583642042	0.993361561037126	-0.115016115679927	0.0514852403805882	-0.114967396827221	-0.992034156513638	-0.998671701729436	-0.00391238043357467	-0.0513763120920165
258	0.0001	-9.43996948242188	-0.0880169677734375	-0.0772393798828125	0.0018637711161178	0.993381975421974	-0.114842401855601	0.0509671885299849	-0.114787705963821	-0.992081714503857	-0.99869858919024	-0.00400418110228995	-0.0508438244344813
259	0.0001	-9.52080139160156	0.0940045166015625	-0.0910107421875	0.00143196435334048	0.993462629933683	-0.114148816916079	0.0510318952813664	-0.114072798597214	-0.992160844966274	-0.998695997359598	-0.00440449150858147	-0.0508616290780035
260	0.0001	-9.55493041992188	-0.111368408203125	-0.116757202148438	0.000960624964324919	0.993542763368657	-0.113454195856523	0.0505684087089303	-0.113357358303756	-0.992266569707476	-0.998720137596276	-0.00478400210768976	-0.0503507704361026
261	0.0001	-9.43517944335938	-0.022752685546875	-0.077838134765625	0.000572045458528625	0.993598403189988	-0.112968517482967	0.0503137713388524	-0.112854054291171	-0.992336881731052	-0.998733296319721	-0.00511621035060245	-0.0500562405099837
262	0.0001	-9.56690551757813	-0.125139770507812	-0.179027709960938	0.000123211305404047	0.993646459000352	-0.11254643190717	0.0498422761478964	-0.112412651064695	-0.992410773515183	-0.99875709375572	-0.00548729411167581	-0.0495394517123566
263	0.0001	-9.50403625488281	-0.0137713623046875	-0.121547241210938	-0.000321235749244697	0.993661926147199	-0.112409400554549	0.0493102634222646	-0.112256921488611	-0.992454977064011	-0.998783457376433	-0.00586174917063248	-0.0489616703947109
264	0.0001	-9.43577819824219	-0.0383203125	-0.123343505859375	-0.00064334661767218	0.993706802161765	-0.112010613080049	0.0488500445129109	-0.111845679639727	-0.992524164490222	-0.998805916710657	-0.00611026049906133	-0.0484706659786872
265	0.0001	-9.4651171875	-0.025147705078125	-0.0748443603515625	-0.00107573035390263	0.993762533856423	-0.111511744258025	0.0483260444543	-0.111329858215243	-0.992607805780901	-0.998831034876073	-0.00645669985638897	-0.0479048514803857
266	0.0001	-9.41063049316406	-0.0209564208984375	-0.015567626953125	-0.00132783511367718	0.993795811467361	-0.111212058536122	0.0480036127003869	-0.111020601225057	-0.99265808779828	-0.998846279475287	-0.00665666685043531	-0.0475583721842974
267	0.0001	-9.513017578125	-0.0820294189453125	-0.12214599609375	-0.00157159832136489	0.993839132081249	-0.110821070301209	0.0475824181310738	-0.110621361440578	-0.992722936109483	-0.99886607889322	-0.00683329620477546	-0.0471154167917662
268	0.0001	-9.44775329589844	-0.05748046875	-0.0700543212890625	-0.00185607856933312	0.99388556472196	-0.110399452940921	0.0473748614023632	-0.11018828973514	-0.992781024855105	-0.998875456440617	-0.00707283836624695	-0.0468806727553435
269	0.0001	-9.54954162597656	-0.0868194580078125	-0.0928070068359375	-0.00214805832189491	0.99392441129137	-0.110043857095928	0.0471047597229088	-0.109821386980763	-0.992834530308585	-0.998887645061692	-0.0073162559225799	-0.0465826678323873
270	0.0001	-9.5082275390625	-0.0425115966796875	-0.080233154296875	-0.00249461088055225	0.993945491996608	-0.109845964223437	0.046690850740846	-0.109610734493299	-0.992877359667817	-0.998906272566977	-0.00760564418452236	-0.0461347244804577
271	0.0001	-9.474697265625	-0.0065863037109375	-0.143102416992188	-0.00268634642405485	0.993987282758968	-0.109462620361166	0.0463374153309494	-0.109221703452703	-0.992936787230354	-0.998922232950762	-0.00773958709057831	-0.0457653942223847
272	0.0001	-9.4794873046875	-0.058677978515625	-0.0628692626953125	-0.00300062425936332	0.994038465923043	-0.108988643992934	0.0459085744847154	-0.108737286048554	-0.993009871759378	-0.998941138928033	-0.00798316279172639	-0.0453086092150854
273	0.0001	-9.53098022460938	-0.0317340087890625	-0.09340576171875	-0.00339008503713811	0.994110486338913	-0.108318273040384	0.0455367955218222	-0.108053064703301	-0.993101674282059	-0.998956909769908	-0.00829916617705739	-0.0449022968646466
274	0.0001	-9.42500061035156	-0.0245489501953125	-0.1484912109375	-0.00361455986549131	0.994111338012275	-0.10830319751708	0.0452439093143784	-0.10803042119135	-0.99311752414665	-0.998969430777004	-0.00848974279141651	-0.0445870008007325
275	0.0001	-9.56091796875	-0.0526904296875	-0.034727783203125	-0.00386714582916015	0.99419277312249	-0.107544293452282	0.0452446863944365	-0.10726100845244	-0.993200883214889	-0.998968449720113	-0.00870666048380259	-0.0445671462740735
276	0.0001	-9.513017578125	0.0353265380859375	-0.107177124023438	-0.00428606517039443	0.994271612699612	-0.106796956066492	0.0450493819253028	-0.106497527580578	-0.99329191570624	-0.998975566684943	-0.00906845074624196	-0.0443348662742954
277	0.0001	-9.46631469726563	-0.00718505859375	-0.10777587890625	-0.00485893114653568	0.994323579516639	-0.106287393444998	0.0447449969212827	-0.105966007451843	-0.993362517168446	-0.998986624554417	-0.00958250916693848	-0.0439761239701489
278	0.0001	-9.50882629394531	-0.192799072265625	-0.067060546875	-0.00522004479352067	0.994366889176395	-0.105864256678132	0.044380257458766	-0.105531019689538	-0.993425184214282	-0.999001073012561	-0.00988400692766678	-0.043579381900235
279	0.0001	-9.47110473632813	-0.0269439697265625	-0.0940045166015625	-0.00564413072678593	0.99440435623699	-0.105489905134262	0.0440744824865644	-0.105141692448974	-0.993480077556922	-0.999012304119364	-0.0102567444085382	-0.043234423926513
280	0.0001	-9.47828979492188	-0.0437091064453125	-0.121547241210938	-0.00593671024304077	0.994440091155058	-0.105136390346114	0.0436384548717575	-0.104780446203454	-0.993537489654925	-0.999029749671098	-0.0104863338171778	-0.0427737778922898
281	0.0001	-9.4507470703125	-0.0293389892578125	-0.07903564453125	-0.00618035533043559	0.994489884623083	-0.104650239322983	0.0433260130447652	-0.104287659625684	-0.993603009578495	-0.999041870895127	-0.0106748972906309	-0.0424427469210003
282	0.0001	-9.52858520507812	-0.0712518310546875	-0.0718505859375	-0.00646151938819295	0.994542130224034	-0.104135488555232	0.0428877278624745	-0.103766222344484	-0.993676614346514	-0.999059003045361	-0.0108867952031768	-0.0419831647712953
283	0.0001	-9.47649353027344	-0.0377215576171875	-0.068258056640625	-0.00671223150600786	0.994585565681595	-0.10370389812361	0.0423958462509372	-0.103329944328289	-0.993743183536762	-0.999078344359879	-0.0110668488258874	-0.041472722218204
284	0.0001	-9.47649353027344	-0.0604742431640625	-0.068258056640625	-0.00701592752013203	0.994651579174267	-0.103048594396859	0.0421031856438849	-0.102665919943854	-0.993824446590402	-0.99908863396581	-0.011311274385246	-0.0411577034358437
285	0.0001	-9.4794873046875	-0.075443115234375	-0.03113525390625	-0.0074086616119966	0.994715161269821	-0.102405369356658	0.0417111171265588	-0.10201164317593	-0.99390834957988	-0.999102244237883	-0.0116349729909997	-0.040734910854515
286	0.0001	-9.51601135253906	-0.0928070068359375	-0.0556842041015625	-0.00777139312210617	0.994780479616952	-0.101741844007315	0.0411985350228676	-0.101340009663539	-0.993998432168464	-0.99912075654593	-0.011916367502765	-0.0401959453754704
287	0.0001	-9.47529602050781	-0.0676593017578125	-0.067060546875	-0.00807077998644501	0.994833328475228	-0.101200351112582	0.0408209377860634	-0.100791510329248	-0.994069777472294	-0.999133881693878	-0.0121540117018478	-0.0397965633048207
288	0.0001	-9.51002380371094	-0.0820294189453125	0.009580078125	-0.00845342239573499	0.994896051646618	-0.100550415552445	0.040307580326733	-0.10013326215565	-0.994157245499057	-0.999151559383262	-0.0124569750757505	-0.0392553837576309
289	0.0001	-9.39685913085938	0.022752685546875	-0.147892456054688	-0.00881972819990096	0.994978590046756	-0.0996986346097546	0.0403542859467182	-0.0992671377087989	-0.994242207400608	-0.999146507775617	-0.0127922132436823	-0.0392761413598355
290	0.0001	-9.45194458007813	-0.0437091064453125	-0.183817749023438	-0.00896420885610627	0.994997883299309	-0.0994929906550151	0.0400391176977546	-0.0990600442643478	-0.994275603987311	-0.999157901441794	-0.0128965057376114	-0.0389508424323568
291	0.0001	-9.52619018554688	0.0724493408203125	-0.04071533203125	-0.00923664276771918	0.995066820457742	-0.0987760459549904	0.0399654909716878	-0.0983339763792793	-0.994350636657327	-0.999158367808514	-0.0131320947894911	-0.0388600582174852
292	0.0001	-9.48248107910156	-0.09580078125	-0.073048095703125	-0.00956224703325004	0.995139553586343	-0.0980093481237909	0.0398698253620407	-0.0975564628096474	-0.994431060249865	-0.99915912669468	-0.0134166110491889	-0.0387431812152707
293	0.0001	-9.53337524414063	-0.046702880859375	-0.13172607421875	-0.00992454256278108	0.995194980284005	-0.0974086991620327	0.0397192689366881	-0.0969442779630854	-0.994496951551563	-0.999161590099447	-0.0137389296430194	-0.0385662894534794
294	0.0001	-9.47709228515625	-0.0963995361328125	-0.070653076171875	-0.0102249455911775	0.995246687807112	-0.0968477201416297	0.0394842954786176	-0.096375400916251	-0.994561598147037	-0.999167874232461	-0.0139933022266306	-0.0383111810647948
295	0.0001	-9.61959594726563	-0.0305364990234375	-0.099393310546875	-0.0104617171060489	0.995282172178474	-0.0964569863664211	0.0392323861310242	-0.0959794457053116	-0.994609856114732	-0.999175346149844	-0.0141895646797229	-0.0380431846792657
296	0.0001	-9.45374084472656	-0.0341290283203125	-0.156275024414063	-0.010766136584627	0.995328254564162	-0.0959466308387115	0.0387155449519866	-0.0954653278549603	-0.994679585472938	-0.99919227222898	-0.0144234823743696	-0.0375068830227785
297	0.0001	-9.4603271484375	-0.005987548828125	-0.0616717529296875	-0.0110539154913474	0.995372472969024	-0.0954539208615373	0.0382822155191262	-0.0949685078091106	-0.994743914029866	-0.999205826107543	-0.0146500027317855	-0.0370552896723443
298	0.0001	-9.48307983398437	-0.0365240478515625	-0.104183349609375	-0.0113496461593542	0.995406552737736	-0.0950630332928345	0.0379022242105397	-0.0945725801226291	-0.994796184396001	-0.999216996919064	-0.0148936850955694	-0.0366547570217369
299	0.0001	-9.54475158691406	-0.113164672851563	-0.140108642578125	-0.0116041233910544	0.995441609219305	-0.0946643911679848	0.0375842530917361	-0.0941696651736539	-0.994846469602531	-0.999226084647445	-0.0151022116248555	-0.0363201729645738
300	0.0001	-9.4794873046875	-0.0047900390625	-0.11735595703125	-0.0118300377597119	0.995478260773673	-0.094250106279128	0.0372717473205739	-0.0937522064163409	-0.994897653351207	-0.999235141024511	-0.0152825429523664	-0.035994122056719
301	0.0001	-9.47050598144531	-0.0856219482421875	-0.132324829101563	-0.0120606829575026	0.995510643480792	-0.0938781052378976	0.0370854934162849	-0.0933750073923776	-0.994940085720012	-0.999239313730534	-0.0154811727893131	-0.0357928370543343
302	0.0001	-9.54115905761719	-0.0413140869140625	-0.0844244384765625	-0.0124036900316702	0.995543163083282	-0.0934877473882695	0.0366699205465016	-0.0929791636308548	-0.9949925587951	-0.999250451789096	-0.0157697675519123	-0.0353532039657956
303	0.0001	-9.50104248046875	-0.0365240478515625	-0.0718505859375	-0.012743676216161	0.995572457263827	-0.0931293780402517	0.0364892788357329	-0.0926118820824324	-0.995033452617146	-0.999252786459235	-0.016078607987511	-0.0351475051552474
304	0.0001	-9.5034375	-0.0910107421875	-0.128133544921875	-0.0128525886966945	0.99559985055731	-0.0928210565230515	0.0361911171184674	-0.0923047212953903	-0.995072882490674	-0.99926223485405	-0.0161485602095728	-0.0348455161770752
305	0.0001	-9.50104248046875	-0.07903564453125	-0.0784368896484375	-0.0131378419680669	0.995607170371144	-0.0927025318639404	0.035847004720825	-0.0921819725329203	-0.995096717004174	-0.999270928908155	-0.016396531508302	-0.0344784627489395
306	0.0001	-9.54295532226562	-0.182021484375	-0.092208251953125	-0.0133991733005955	0.995645203251599	-0.0922555765086523	0.035728066683814	-0.0917282153653492	-0.995142924286218	-0.999271718505982	-0.0166302058908274	-0.0343433959609578
307	0.0001	-9.44895080566406	0.06945556640625	-0.169447631835938	-0.0134677608846314	0.995647706708985	-0.0922185639765312	0.035756920427866	-0.0916883834519319	-0.99514555869053	-0.999269764407124	-0.016699834283928	-0.0343664585987513
308	0.0001	-9.50164123535156	-0.0431103515625	-0.0928070068359375	-0.0137219773995667	0.995704871606129	-0.0915615421236894	0.0357470554615262	-0.0910231218178058	-0.995206983154947	-0.99926665878637	-0.0169292632551816	-0.034344500048194
309	0.0001	-9.52678894042969	0.03113525390625	-0.111967163085938	-0.0141174709659855	0.99573565504005	-0.0911657956444634	0.0354874462008747	-0.090618485297539	-0.995253199585171	-0.999270402931892	-0.0172856994172406	-0.0340568116533568
310	0.0001	-9.42799438476563	-0.0461041259765625	-0.198187866210938	-0.0145562984595077	0.995758949961556	-0.0908417731366905	0.0353973044380738	-0.0902812745517256	-0.995287055227704	-0.999267304085186	-0.0177032493281928	-0.0339330215210463
311	0.0001	-9.57768310546875	-0.0987945556640625	-0.159268798828125	-0.0153146724071291	0.995773781232152	-0.0905540579967907	0.0351897634711043	-0.0899718065677688	-0.99532243748937	-0.999263299314005	-0.0184296129518708	-0.0336631550888233
312	0.0001	-9.5848681640625	-0.087418212890625	-0.204774169921875	-0.01562187388775	0.99580905990468	-0.0901125588805117	0.0347416453697569	-0.0895285511210209	-0.995378147545531	-0.999274224191357	-0.0186803304555669	-0.0331974414802336
313	0.0001	-9.50882629394531	-0.01916015625	-0.0748443603515625	-0.0158964661925873	0.995860402461268	-0.089495034344199	0.0342357928284013	-0.0889117484819695	-0.995450958847944	-0.999287352492765	-0.0188880859686839	-0.0326806878208046
314	0.0001	-9.46451843261719	-0.077838134765625	-0.15088623046875	-0.0162072252342506	0.99590439303804	-0.0889481072184225	0.0338675218938061	-0.088361950699891	-0.995512509529279	-0.999294909829415	-0.0191469474340877	-0.0322967117982225
315	0.0001	-9.44236450195313	-0.047900390625	-0.116158447265625	-0.0164289744452728	0.995926703915473	-0.0886571442509782	0.0335029804948062	-0.0880709951404271	-0.99555062659462	-0.999303577045855	-0.0193261543778641	-0.0319195968070047
316	0.0001	-9.56031921386719	-0.12214599609375	-0.152682495117188	-0.0167945764444546	0.995950415342926	-0.0883216416304905	0.0331126471928179	-0.0877316292471559	-0.995593648947965	-0.999310509700531	-0.019645137003671	-0.0315051391708029
317	0.0001	-9.48068481445313	-0.0161663818359375	-0.16046630859375	-0.0169789427810741	0.99598248027043	-0.0879239131090097	0.0326635758976456	-0.0873371289871432	-0.995643167359603	-0.99932217343138	-0.0197768777780203	-0.0310494572213023
318	0.0001	-9.50463500976563	-0.157472534179688	-0.11735595703125	-0.0172138325326244	0.996010984575633	-0.0875545691224466	0.0322584427513725	-0.0869687165419609	-0.995688623624023	-0.999331314850483	-0.019963991277361	-0.0306326984035402
319	0.0001	-9.53038146972656	-0.0736468505859375	-0.121547241210938	-0.0174532569649457	0.99604064252372	-0.0871689294545402	0.0317277607495207	-0.08658657525329	-0.995738978941634	-0.999344151440902	-0.0201445632080065	-0.0300909214551811
320	0.0001	-9.50942504882813	-0.0245489501953125	-0.124541015625	-0.0178012488284668	0.996063467283128	-0.0868371158207125	0.0312914300792256	-0.0862533240309199	-0.995781708255988	-0.999351770871371	-0.0204434155054862	-0.029632833457604
321	0.0001	-9.44835205078125	-0.14130615234375	-0.128732299804688	-0.018048438555101	0.996077066291564	-0.0866298555563509	0.031001320868985	-0.0860447970564172	-0.995808822517605	-0.999356378860965	-0.0206584342947727	-0.029326730509683
322	0.0001	-9.52678894042969	-0.0664617919921875	-0.201780395507813	-0.0182430235615841	0.99608841200125	-0.086458473084833	0.0306769097746314	-0.0858745158553709	-0.995833567787954	-0.999362856673196	-0.020819294018648	-0.0289903035264288
323	0.0001	-9.53157897949219	-0.020357666015625	-0.147892456054688	-0.0184143721033163	0.996095852319919	-0.0863363416592072	0.0300806135954014	-0.0857599538846792	-0.99586163044643	-0.999377840251506	-0.0209352167591469	-0.0283839587352218
324	0.0001	-9.52140014648437	-0.123942260742188	-0.168250122070313	-0.018767907718762	0.996112986190834	-0.0860620960809123	0.0298983918124991	-0.085479616022603	-0.995891219667919	-0.999376731671739	-0.021263912777485	-0.0281779028053046
325	0.0001	-9.45793212890625	0.07903564453125	-0.22752685546875	-0.018897352803541	0.996119665741794	-0.0859563934764269	0.029621011860173	-0.0853762219305894	-0.995908377505299	-0.999382552235828	-0.0213661473203426	-0.0278926878462334
326	0.0001	-9.4890673828125	-0.08861572265625	-0.186212768554688	-0.0192641309222348	0.996162515195858	-0.0853764404181395	0.0294875291983545	-0.0847890581320368	-0.995962499917973	-0.999379496928763	-0.0217038922717377	-0.0277409837365155
327	0.0001	-9.46332092285156	-0.0089813232421875	-0.164058837890625	-0.0196667566251661	0.996195174885808	-0.0849022509600372	0.0290345194638916	-0.084313797943053	-0.996016154565737	-0.99938491851906	-0.0220535033646056	-0.0272658692507675
328	0.0001	-9.49265991210938	-0.174237670898438	-0.1868115234375	-0.0199425209795626	0.996239662012265	-0.084313887887271	0.0285778683176918	-0.0837282043843269	-0.996078758549239	-0.999392616192153	-0.0222738327250599	-0.0268006544013326
329	0.0001	-9.52619018554688	-0.0544866943359375	-0.0987945556640625	-0.0201067285219281	0.996266186597844	-0.083960734334183	0.027945500814635	-0.0833848794138844	-0.996125499557837	-0.999407208525316	-0.0223751497631128	-0.0261645603959546
330	0.0001	-9.45972839355469	-0.0383203125	-0.17004638671875	-0.0202305222547249	0.99630922490197	-0.0834185491634684	0.0274386109225691	-0.0828509226222434	-0.996184143244251	-0.999418755377315	-0.0224422145939286	-0.0256612237467176
331	0.0001	-9.47589477539062	-0.076640625	-0.067060546875	-0.0205010227274998	0.996342881146134	-0.0829492088964513	0.0270426222355903	-0.0823836844730604	-0.996233720125587	-0.999424036457874	-0.0226669742591241	-0.0252547743641972
332	0.0001	-9.513017578125	-0.0628692626953125	-0.0568817138671875	-0.0207291898113457	0.996380114809134	-0.0824437232462402	0.0265841697029573	-0.0818829762520225	-0.996287338131583	-0.999431629783133	-0.0228439272684919	-0.0247905703036918
333	0.0001	-9.52499267578125	0.022752685546875	-0.0952020263671875	-0.020828612194685	0.996414887498716	-0.0819972004702821	0.0262139968778531	-0.0814425165545095	-0.996333248900666	-0.999439340471312	-0.0229017132151433	-0.0244236821564646
334	0.0001	-9.46152465820312	-0.108374633789063	-0.131127319335938	-0.0210058137254773	0.996443987111855	-0.0815974039927698	0.0259315841039311	-0.0810449377713301	-0.99637305815016	-0.999442999242874	-0.0230455768048874	-0.0241369561904301
335	0.0001	-9.5273876953125	-0.0473016357421875	-0.11735595703125	-0.0212234254374478	0.996497678405582	-0.080882279548647	0.0255537653139454	-0.0803333892009336	-0.996440440597315	-0.9994481333671	-0.0232147261835178	-0.0237593181140242
336	0.0001	-9.42380310058594	-0.0143701171875	-0.0772393798828125	-0.0214012548634855	0.996529429381411	-0.0804430398917675	0.0252466466545826	-0.0798971281342696	-0.996483344441138	-0.999452146489749	-0.0233569110255713	-0.023449127582423
337	0.0001	-9.53517150878906	-0.070653076171875	-0.108374633789063	-0.0217378872584411	0.996553794958007	-0.0800499719695976	0.0249749871867257	-0.0795026164449636	-0.996521742860349	-0.999451706823578	-0.0236615243211218	-0.0231606993469274
338	0.0001	-9.50463500976563	-0.0335302734375	-0.1101708984375	-0.0219189117018703	0.996562718489726	-0.0798893574024344	0.0247352773795808	-0.079343527934268	-0.996540400900987	-0.999453714467439	-0.0238191664697211	-0.0229111314850861
339	0.0001	-9.51182006835938	-0.0808319091796875	-0.076640625	-0.022376687101198	0.996572253001525	-0.079643131667705	0.0247037484126656	-0.0790875851576177	-0.99656152779861	-0.999444349970892	-0.0242672293721571	-0.0228493520665317
340	0.0001	-9.52020263671875	-0.147892456054688	-0.111967163085938	-0.0226237600279746	0.996595821630806	-0.0792775743209589	0.0246163132705653	-0.0787185269272273	-0.996592911192616	-0.999440945030351	-0.0244982004732174	-0.0227516058864432
341	0.0001	-9.48188232421875	-0.0856219482421875	-0.0748443603515625	-0.0227482854325287	0.996609076536064	-0.0790750534354155	0.023975077185474	-0.07852895023459	-0.996623499446508	-0.999453706373552	-0.0245673063437344	-0.0221073805590426
342	0.0001	-9.43996948242188	0.05987548828125	-0.0987945556640625	-0.023009653968999	0.99662414537541	-0.0788090647004587	0.0238802577440451	-0.0782595317256894	-0.996646968080551	-0.99944999330347	-0.0248144826423998	-0.0219989167207193
343	0.0001	-9.43517944335938	-0.08382568359375	-0.171243896484375	-0.0233685489357507	0.996659171474608	-0.0782585895361353	0.023958578938163	-0.077699172330818	-0.996688930968118	-0.999439791791332	-0.0251661386520404	-0.0220628205233384
344	0.0001	-9.48786987304688	-0.128732299804688	-0.123343505859375	-0.0235748086929949	0.996691833308148	-0.0777792890937622	0.0236726387077811	-0.0772225560877636	-0.996732804219809	-0.999441761470722	-0.0253390261871791	-0.0217738186863465
345	0.0001	-9.51241882324219	-0.056282958984375	-0.137713623046875	-0.0239259557848976	0.996715597325952	-0.0773664441922335	0.0234431990134956	-0.0768079381736129	-0.996770262925982	-0.999438825071246	-0.025662398186633	-0.0215284987752963
346	0.0001	-9.52439392089844	-0.0916094970703125	-0.233514404296875	-0.0240919135901425	0.996739325667718	-0.0770084175076252	0.0230731163588734	-0.0764558720648587	-0.996805964532863	-0.999443450626925	-0.0257917873414306	-0.0211559141773507
347	0.0001	-9.51601135253906	-0.013172607421875	-0.143701171875	-0.0242857954100851	0.996765269989741	-0.0766106825682874	0.0226341200284944	-0.0760654083388964	-0.996845900962016	-0.999448796463248	-0.0259432109908612	-0.0207135958164792
348	0.0001	-9.51601135253906	-0.140108642578125	-0.132324829101563	-0.0244100096356913	0.996803414869305	-0.0760730144957993	0.0222546064381094	-0.0755350096914384	-0.996894776194157	-0.999454293062905	-0.0260271860908344	-0.0203396573796797
349	0.0001	-9.53397399902344	-0.0005987548828125	-0.129929809570312	-0.0246978358059134	0.996821965828669	-0.0757362881845392	0.0218168471315452	-0.075203910425604	-0.996929484486208	-0.999456873550702	-0.0262743277395474	-0.0198901386141959
350	0.0001	-9.52199890136719	-0.09340576171875	-0.211360473632813	-0.0249646313042786	0.996835920746729	-0.0754646559182617	0.0215827911663928	-0.0749331515454643	-0.996954966849021	-0.999455326820218	-0.0265173510834826	-0.0196438230038353
351	0.0001	-9.4794873046875	-0.0437091064453125	-0.127534790039063	-0.0250519456009973	0.99685981498397	-0.0751193003943065	0.021218307685859	-0.0745957326540327	-0.996988094256274	-0.999460946430901	-0.0265703959310632	-0.0192829100374829
352	0.0001	-9.48786987304688	-0.075443115234375	-0.16046630859375	-0.0253635221321201	0.996877357231161	-0.0747811900471582	0.0210827139013023	-0.074255212786587	-0.997016390310899	-0.999455957468667	-0.0268644377166999	-0.0191335063842533
353	0.0001	-9.49265991210938	-0.04550537109375	-0.19399658203125	-0.0255101011488518	0.996906371864006	-0.0743432611359012	0.0208190059525754	-0.0738215374177834	-0.997054135744104	-0.99945775485036	-0.0269827046498353	-0.0188714048035055
354	0.0001	-9.52619018554688	-0.04071533203125	-0.152682495117188	-0.0259876743869748	0.996911736487878	-0.0741055357762234	0.0208862866825988	-0.0735729150034491	-0.99707110539144	-0.999444047362617	-0.0274593486925637	-0.0189097953667228
355	0.0001	-9.48727111816406	-0.120948486328125	-0.222138061523438	-0.0263606797285172	0.996911599347424	-0.0739755206187252	0.0211006497064674	-0.073429853721318	-0.997077138021142	-0.9994297759954	-0.0278445626474312	-0.0190998215896845
356	0.0001	-9.60522583007813	-0.143701171875	-0.128133544921875	-0.0265121171015903	0.9969133783683	-0.0738973861316748	0.0205220525529631	-0.0733650064068231	-0.997093988144518	-0.999437818478871	-0.0279515986166999	-0.0185136471006098
357	0.0001	-9.43398193359375	-0.0760418701171875	-0.162262573242188	-0.0266124595571184	0.996927979485099	-0.0736639716284542	0.0203288153465853	-0.073135111722381	-0.997114835262197	-0.999439100827522	-0.0280331795041489	-0.0183200596058799
358	0.0001	-9.47409851074219	-0.065863037109375	-0.216150512695313	-0.0268746382605596	0.996973565324677	-0.0729483643556564	0.0201502790576284	-0.0724196118906511	-0.997170680509364	-0.999435700819349	-0.0282685312212893	-0.0181430446818396
359	0.0001	-9.46691345214844	-0.05508544921875	-0.229921875	-0.0271466618252606	0.997000467294846	-0.072478458631546	0.019839550909613	-0.0719535402533107	-0.997210649895357	-0.99943456562771	-0.0285088803511285	-0.017826743103417
360	0.0001	-9.52858520507812	-0.0856219482421875	-0.204175415039063	-0.0273367926830957	0.99703426477218	-0.0719400767027698	0.0194332791039634	-0.0714233073890077	-0.997256766748104	-0.999437365435708	-0.0286598330737331	-0.0174231609966981
361	0.0001	-9.50403625488281	-0.0520916748046875	-0.2442919921875	-0.0275180274478203	0.997061924177861	-0.0714862051036597	0.0191437226484373	-0.0709745235972998	-0.997294407325789	-0.999437980091081	-0.0288120869580426	-0.0171343980513315
362	0.0001	-9.54415283203125	0.0389190673828125	-0.205372924804688	-0.0276143038203421	0.997088182297215	-0.071081692071545	0.0185548836028038	-0.0705852799360089	-0.997333161260991	-0.999446430039652	-0.0288595734478412	-0.0165516917988591
363	0.0001	-9.46152465820312	-0.0916094970703125	-0.169447631835938	-0.0279151703297225	0.997115484155112	-0.0705794199719754	0.0181407369168001	-0.070089973069262	-0.997375711223843	-0.99944567482659	-0.0291222755509937	-0.0161318361370913
364	0.0001	-9.5561279296875	-0.0544866943359375	-0.21315673828125	-0.0280935404246483	0.997142161654646	-0.0701303246613605	0.0175830535361571	-0.0696542139685762	-0.997416225406808	-0.999450643711211	-0.0292540583016951	-0.0155759705356596
365	0.0001	-9.43098815917969	-0.07903564453125	-0.20357666015625	-0.0282941695096605	0.997164421118006	-0.0697320387494298	0.0172978750324492	-0.0692610898381482	-0.997448587624342	-0.99944996047382	-0.0294281955074604	-0.0152891405269989
366	0.0001	-9.48547485351563	-0.07424560546875	-0.219743041992187	-0.0285186647267484	0.997191573870275	-0.0692506372846249	0.0170158333960262	-0.0687844775087533	-0.997486419490354	-0.999448421468583	-0.0296253380735338	-0.0150064042324212
367	0.0001	-9.53277648925781	-0.0305364990234375	-0.151484985351563	-0.0287411715342399	0.997224547331036	-0.0686814913877817	0.0165873097806019	-0.0682246068792804	-0.997532086787393	-0.999449251444555	-0.0298094819911077	-0.0145804173582268
368	0.0001	-9.493857421875	-0.10298583984375	-0.195792846679688	-0.0289924126790977	0.997239700949492	-0.0683550938644176	0.0162671067248922	-0.0679040677146507	-0.997559230736003	-0.999447257860987	-0.0300335884964243	-0.014253501891872
369	0.0001	-9.49086364746094	-0.0449066162109375	-0.159268798828125	-0.0290762409866634	0.997269373333679	-0.0678849705069997	0.0158718381762963	-0.0674444999624687	-0.997596774342078	-0.999451177878635	-0.0300838234847781	-0.0138674655775948
370	0.0001	-9.51481384277344	-0.0161663818359375	-0.0281414794921875	-0.0293965071872229	0.997307027739399	-0.0671903102150682	0.0157624127052402	-0.0667484905187666	-0.99764532042163	-0.999443541032159	-0.0303863692314769	-0.0137577924837935
371	0.0001	-9.54774536132813	-0.182021484375	-0.115559692382813	-0.0295741797892525	0.99733022093654	-0.0667667454386278	0.0156186155092989	-0.0663267301788094	-0.997675710696297	-0.999440556881382	-0.0305482449653158	-0.0136153586134704
372	0.0001	-9.50044372558594	0.008382568359375	-0.10777587890625	-0.0296114075858012	0.997357147338887	-0.0663467044609274	0.0154897083857713	-0.0659099795641687	-0.997705339029503	-0.999441460754411	-0.0305711505489892	-0.0134970840998977
373	0.0001	-9.49146240234375	-0.089813232421875	-0.147892456054688	-0.0298596581353692	0.997401637535083	-0.0655619879074276	0.0154187961031459	-0.0651238172599738	-0.997758061431838	-0.999435171255629	-0.0308036015398251	-0.0134341575622441
374	0.0001	-9.49505493164063	-0.029937744140625	-0.165855102539063	-0.0301314536184225	0.997430143309233	-0.0650015747575704	0.015254221562156	-0.0645646617856432	-0.997796929827427	-0.999429539401039	-0.0310566203349408	-0.0132695932868286
375	0.0001	-9.50044372558594	-0.080233154296875	-0.235909423828125	-0.0302993914445289	0.997456625939291	-0.0645153179322278	0.0150253286072476	-0.0640831419333537	-0.997831443892301	-0.999427929556872	-0.0312030493662853	-0.0130454333737801
376	0.0001	-9.54594909667969	-0.0628692626953125	-0.230520629882813	-0.0305996324561476	0.997466963720871	-0.0642130732718442	0.0146596047665847	-0.0637883854552012	-0.997855770073565	-0.999424213475758	-0.0314753580835105	-0.0126705703059726
377	0.0001	-9.53816528320313	-0.0975970458984375	-0.171243896484375	-0.0307966903466558	0.997495697287913	-0.0636702266038991	0.0140801933748394	-0.063261172942331	-0.99789767619355	-0.99942649155314	-0.0316284348341829	-0.0120966975543129
378	0.0001	-9.53457275390625	-0.0520916748046875	-0.192799072265625	-0.0309696426641988	0.99751424708533	-0.0632946134757047	0.0138415503940471	-0.0628909037458479	-0.997924418835775	-0.999424480746765	-0.0317814582393179	-0.011859434903974
379	0.0001	-9.55792419433594	-0.135917358398437	-0.25626708984375	-0.0311192742889156	0.997547156455635	-0.0626997720490932	0.0136039478889259	-0.0623016271385113	-0.997964648601206	-0.999423095275253	-0.0319089000620658	-0.0116317981095995
380	0.0001	-9.55373291015625	-0.0449066162109375	-0.1916015625	-0.0312582645104322	0.997574932077842	-0.0621866206646139	0.0133128510441593	-0.0617959710398555	-0.998000013006171	-0.999422677797973	-0.0320236296058093	-0.0113489316676969
381	0.0001	-9.43338317871094	-0.08861572265625	-0.137114868164063	-0.031513471964484	0.997585260928511	-0.0618914231775224	0.0132424199416399	-0.0615000224459815	-0.998019231053808	-0.999415598937116	-0.0322706432743327	-0.0112723637196389
382	0.0001	-9.56750427246094	-0.0808319091796875	-0.23710693359375	-0.0317088463372102	0.99760919321907	-0.061403962972754	0.0130238695492301	-0.061017240625365	-0.998051739725166	-0.999412291242172	-0.0324467864550936	-0.0110579456866875
383	0.0001	-9.51900512695313	-0.02634521484375	-0.13651611328125	-0.0319616276848604	0.99762477712104	-0.0610185089127026	0.0127242162686143	-0.0606386164293058	-0.998078680524682	-0.999408099164743	-0.0326766318909205	-0.0107558845373776
384	0.0001	-9.50104248046875	-0.102387084960937	-0.231119384765625	-0.0320943667356076	0.997640706630942	-0.0606874953903655	0.0122786377703535	-0.0603206423202187	-0.998103529281698	-0.999409418946182	-0.0327786604819593	-0.0103137160453284
385	0.0001	-9.49685119628906	-0.058677978515625	-0.164657592773438	-0.0323123101522255	0.99764241167944	-0.0605436456703512	0.0119557674071502	-0.060185132299485	-0.998115629311454	-0.999406310885784	-0.0329752675277112	-0.00998285996813375
386	0.0001	-9.39626037597656	0.0137713623046875	-0.304766235351562	-0.0322733836229225	0.997671356884596	-0.0600857084636326	0.011915899485457	-0.0597286812193633	-0.998143524739427	-0.999408044819022	-0.0329294441472168	-0.00996050496587253
387	0.0001	-9.50164123535156	-0.0496966552734375	-0.207169189453125	-0.0323885680387008	0.997662319146777	-0.0601737286120498	0.0114802492189671	-0.0598299942888786	-0.998142562794145	-0.999409417875514	-0.0330192177082821	-0.00951560421939723
388	0.0001	-9.4651171875	-0.113763427734375	-0.122744750976563	-0.0325891800441366	0.997677944361713	-0.0598052228341109	0.0113879585491893	-0.0594624659932229	-0.998165582224756	-0.999403952235598	-0.033210457271643	-0.00942368206570998
389	0.0001	-9.49565368652344	0.0341290283203125	-0.171243896484375	-0.0327350855091524	0.997702395677437	-0.0593156289371658	0.0111723575174373	-0.058978448177949	-0.998196734656062	-0.999401617271161	-0.0333387508767805	-0.00921602331620963
390	0.0001	-9.52259765625	-0.177830200195313	-0.249680786132812	-0.0329998907463052	0.997718768125673	-0.0588919938575864	0.0109702137908985	-0.058558953173965	-0.998223674039316	-0.999395147887018	-0.0335873299468629	-0.00901274913257144
391	0.0001	-9.54714660644531	-0.05508544921875	-0.185614013671875	-0.0331409488080324	0.997722814188383	-0.0587440512742967	0.0105888305958813	-0.0584225292671537	-0.998235786145057	-0.999394593831043	-0.0337045118944388	-0.00862853980940781
392	0.0001	-9.50403625488281	-0.08861572265625	-0.19399658203125	-0.0332622309808812	0.997745501910525	-0.0582883985668585	0.0101013875125093	-0.0579820824610219	-0.99826651756122	-0.999395610336816	-0.0337933651890087	-0.00815000053409032
393	0.0001	-9.50882629394531	-0.0664617919921875	-0.17244140625	-0.033492797388163	0.997761856978811	-0.0578749451948701	0.00988742022481937	-0.0575738126005856	-0.998292289374174	-0.999390049702524	-0.0340078352858045	-0.00793698272395027
394	0.0001	-9.46571594238281	-0.0712518310546875	-0.21794677734375	-0.0337532935410887	0.997789909652142	-0.0572364514230198	0.00968453645185452	-0.0569398602797493	-0.998330637647185	-0.999383272287885	-0.0342512555637487	-0.0077412249331078
395	0.0001	-9.52978271484375	-0.03592529296875	-0.216749267578125	-0.0339236525607272	0.997804411830418	-0.0568818207223804	0.00942068323050482	-0.0565928009660804	-0.998352896327889	-0.999380026078373	-0.0344036424026229	-0.00748016477244284
396	0.0001	-9.47649353027344	-0.0940045166015625	-0.20357666015625	-0.034085420532982	0.997813094111763	-0.056632264003841	0.00909459112812622	-0.0563531697987855	-0.998369475027077	-0.999377542533002	-0.0345448906893656	-0.00715388062227873
397	0.0001	-9.46571594238281	-0.07424560546875	-0.219743041992187	-0.0341976250246492	0.997829789605502	-0.0562692937445736	0.00888712374158274	-0.0559963853928496	-0.9983914181595	-0.999375575784337	-0.034642687522406	-0.00695289342286076
398	0.0001	-9.54894287109375	-0.105380859375	-0.265248413085937	-0.0344494004558655	0.997839094910604	-0.0559497942464401	0.00864407478510604	-0.055683436531563	-0.998411055060562	-0.999369060347248	-0.0348782964610223	-0.00670713475607498
399	0.0001	-9.49086364746094	-0.058677978515625	-0.178428955078125	-0.0345957824907627	0.997844135734748	-0.0557692801964169	0.0083191358685869	-0.0555132204002275	-0.998423294168959	-0.99936676141057	-0.0350051873380273	-0.00638067764252215
400	0.0001	-9.52020263671875	-0.13172607421875	-0.22752685546875	-0.034757392578897	0.997853118902692	-0.0555074477641253	0.00811532047618518	-0.0552573733735317	-0.998439164026245	-0.999362829624299	-0.0351536027176271	-0.00617729562883351
401	0.0001	-9.5465478515625	-0.0987945556640625	-0.252075805664063	-0.0348458735754802	0.997856838000561	-0.0553849794645075	0.00766365413601011	-0.0551502075353618	-0.998448658176318	-0.999363314065533	-0.0352162670413658	-0.00572547252425026
402	0.0001	-9.5944482421875	-0.157472534179688	-0.104183349609375	-0.0351182359166943	0.997848262003879	-0.0553674590525655	0.00740033651787397	-0.0551404660404894	-0.998451182594452	-0.999355764743228	-0.0354735820107831	-0.005447977037638
403	0.0001	-9.44835205078125	-0.065863037109375	-0.276624755859375	-0.0351506242288018	0.997838054846088	-0.0555306214380898	0.00708622063308723	-0.0553147082723577	-0.998443823420168	-0.999356902759702	-0.0354894258860132	-0.0051265540879224
404	0.0001	-9.55433166503906	-0.0652642822265625	-0.2059716796875	-0.0353584828122231	0.997853172407404	-0.0551255295638829	0.00686859647652227	-0.0549160735637013	-0.998467349114025	-0.999351089495409	-0.0356829256203433	-0.00491210174086709
405	0.0001	-9.56630676269531	-0.0029937744140625	-0.154478759765625	-0.0355370999135133	0.997857796920642	-0.0549266024292446	0.00660252950625573	-0.0547256906438675	-0.998479596881013	-0.99934654706656	-0.0358457237091824	-0.00464359321096885
406	0.0001	-9.49685119628906	-0.161663818359375	-0.240100708007813	-0.0357027630460864	0.997864778179166	-0.0546918383336946	0.00634397004766241	-0.0544993244056682	-0.998493654303001	-0.999342317104059	-0.0359959457268414	-0.00438464779895864
407	0.0001	-9.53277648925781	-0.089813232421875	-0.179027709960938	-0.0357649355991555	0.997866536382493	-0.0546190896079027	0.00592216042636223	-0.0544414714800701	-0.998499401201107	-0.999342682665697	-0.0360347297907527	-0.0039624299911476
408	0.0001	-9.52918395996094	-0.162262573242188	-0.180823974609375	-0.0359903248187607	0.997875388977889	-0.0543084210014248	0.00542369076060201	-0.0541477895102703	-0.998518202372739	-0.999337420543219	-0.0362315465220484	-0.0034633709947387
409	0.0001	-9.44296325683594	-0.0383203125	-0.117954711914063	-0.0360695842176935	0.997888823245054	-0.0540081617624985	0.0050540024561837	-0.0538604897904849	-0.998535680233161	-0.999336500961281	-0.0362897241947434	-0.00310060709117466
410	0.0001	-9.50942504882813	-0.125738525390625	-0.170645141601563	-0.0362455715640283	0.997897298040724	-0.0537330541195988	0.00480709330749024	-0.0535936643420565	-0.998551256068673	-0.999331351652659	-0.0364513608170369	-0.00285445242668547
411	0.0001	-9.52858520507812	-0.0760418701171875	-0.171243896484375	-0.0363350558505937	0.997918911884922	-0.0532692126725003	0.0042924529640912	-0.0531480720867955	-0.998577416768979	-0.999330445130081	-0.0365120217992735	-0.00235238182361786
412	0.0001	-9.52499267578125	-0.106578369140625	-0.183218994140625	-0.0364841789011656	0.997933129919465	-0.0528996493282165	0.00397627214127289	-0.052789508581329	-0.998597745362766	-0.999326320052547	-0.0366433621940227	-0.00204207182816618
413	0.0001	-9.50403625488281	-0.13412109375	-0.206570434570313	-0.0364868297325238	0.997955033283083	-0.0524829762973793	0.00349150928541214	-0.0523903226087839	-0.998620580330617	-0.999328034540701	-0.0366197438809858	-0.00157281248447283
414	0.0001	-9.51840637207031	-0.115559692382813	-0.176033935546875	-0.0365328357236572	0.997972306529516	-0.0521212750625543	0.00325898867030022	-0.0520368368780015	-0.998639848293958	-0.999327139082511	-0.0366530081697317	-0.00135132722701015
415	0.0001	-9.5561279296875	-0.0532891845703125	-0.183817749023438	-0.0366017831051508	0.997997436177742	-0.0515890187557129	0.00264428421555407	-0.0515267081763251	-0.998668116095382	-0.999326431770175	-0.0366894498073444	-0.000753019470856042
416	0.0001	-9.44895080566406	0.047900390625	-0.117954711914063	-0.0365797752555513	0.998017684367843	-0.0512115390444707	0.00215233128024966	-0.0511670361715679	-0.998687789992187	-0.99932841824513	-0.0366419991057728	-0.000276385996658357
417	0.0001	-9.49744995117188	-0.047900390625	-0.0622705078125	-0.03673264154459	0.998033264151091	-0.05079681774557	0.00169885627542882	-0.0507686838592478	-0.998708993964986	-0.999323684765108	-0.0367715159752728	0.000169352792002586
418	0.0001	-9.43038940429688	0.0622705078125	-0.221539306640625	-0.0370251843647885	0.998049347642186	-0.0502656482476944	0.00181104364329709	-0.0502330395058226	-0.998735881934222	-0.999312691725506	-0.0370694134430797	5.23766221628419e-05
419	0.0001	-9.513017578125	-0.111368408203125	-0.15088623046875	-0.0371664473758666	0.998046256532589	-0.0502227539143714	0.00148548612389332	-0.0502022432391401	-0.998737967689591	-0.99930798481771	-0.0371941473224588	0.000383255166415464
420	0.0001	-9.54295532226562	0.0149688720703125	-0.156873779296875	-0.0374428700747619	0.998067349820309	-0.0495943212800542	0.00143390776230717	-0.0495754105332002	-0.998769354044763	-0.999297741110773	-0.0374679048404016	0.000425109135284818
421	0.0001	-9.47110473632813	-0.15567626953125	-0.191002807617188	-0.037771192839274	0.998084678149952	-0.0489929814749596	0.00139655122571897	-0.0489751956794884	-0.998799018748432	-0.999285438018674	-0.0377942515531553	0.000455975179709633
422	0.0001	-9.44954956054688	-0.094603271484375	-0.123942260742188	-0.0380399806847657	0.998096841362549	-0.0485350917543692	0.0011996459943453	-0.0485245973578031	-0.998821267445158	-0.999275497907855	-0.0380533666495553	0.000648511868517443
423	0.0001	-9.52678894042969	-0.118553466796875	-0.162861328125	-0.0383076770275009	0.998097341362667	-0.0483137562763746	0.00107412983735666	-0.0483080876118675	-0.998831905235499	-0.999265414254816	-0.0383148252776962	0.000778484483107689
424	0.0001	-9.58067687988281	-0.094603271484375	-0.21076171875	-0.0385002114014801	0.99810764777848	-0.0479463989070154	0.000734960322362754	-0.0479536756397927	-0.998849290346626	-0.999258321734358	-0.0384911475373605	0.00111265713104625
425	0.0001	-9.43218566894531	-0.053887939453125	-0.157472534179688	-0.038814314695551	0.998106815166791	-0.04770989931157	0.000390359764780024	-0.0477307293460122	-0.998860162933407	-0.999246364313611	-0.0387886967260197	0.00146301480789068
426	0.0001	-9.513017578125	-0.157472534179688	-0.111967163085938	-0.0390472116378227	0.998107941194818	-0.0474958207335444	0.000142656127452179	-0.0475265015082342	-0.998869967164704	-0.999237356643826	-0.0390098625764012	0.00171339114912727
427	0.0001	-9.51062255859375	-0.08382568359375	-0.163460083007813	-0.039229556632012	0.998111397566667	-0.0472724013984006	-0.000203238985298726	-0.0473167877647035	-0.998879912847158	-0.999230203997243	-0.0391760085147241	0.00205907175291709
428	0.0001	-9.44475952148438	-0.174237670898438	-0.168848876953125	-0.0393310048106494	0.99811488814248	-0.0471141393735512	-0.000476084211556926	-0.0471693359725854	-0.998886793929987	-0.9992261232596	-0.0392647909994577	0.00233040411961749
429	0.0001	-9.51661010742188	-0.111368408203125	-0.20836669921875	-0.0396040914700611	0.998121239469962	-0.0467494091703572	-0.000619647823448422	-0.0468106391737675	-0.998903588989807	-0.999215258077761	-0.0395317009384847	0.00247237648918508
430	0.0001	-9.4986474609375	-0.135318603515625	-0.223934326171875	-0.0397765493283507	0.998120249861736	-0.0466239524222787	-0.000930063240663914	-0.0466978433139877	-0.998908627659303	-0.999208167053241	-0.0396897750783231	0.00278579402226531
431	0.0001	-9.45493835449219	-0.070653076171875	-0.212557983398438	-0.0399799775710526	0.998122564128167	-0.0463998746941371	-0.00122651088712467	-0.0464859891445406	-0.998918189084721	-0.999199728314846	-0.0398798168434504	0.00308271699495521
432	0.0001	-9.51601135253906	-0.173040161132813	-0.232915649414063	-0.0402145365348455	0.99813901079191	-0.0458400063987264	-0.00135493912349882	-0.0459315506157981	-0.998943670482976	-0.999190149666849	-0.0401099463147994	0.00319953361675362
433	0.0001	-9.46571594238281	-0.0904119873046875	-0.25626708984375	-0.0404307319768688	0.998160060171989	-0.0451868364600289	-0.00140884902789057	-0.0452807181271951	-0.998973308807749	-0.99918135043456	-0.0403255606698318	0.00323698940877348
434	0.0001	-9.4794873046875	-0.177830200195313	-0.3113525390625	-0.0405237743856695	0.99816058496583	-0.0450917989241002	-0.00173065281284196	-0.0451989199617291	-0.998976507469087	-0.999177075672967	-0.0404042603566173	0.00355910025904427
435	0.0001	-9.52080139160156	-0.123343505859375	-0.108973388671875	-0.0408166851543492	0.998182823096111	-0.0443288832353139	-0.00175101333213706	-0.0444372470477032	-0.999010643100029	-0.999165117568324	-0.0406986824197142	0.0035616125530239
436	0.0001	-9.493857421875	-0.2059716796875	-0.206570434570313	-0.0412165384186119	0.998194777262509	-0.0436850501503336	-0.00178342430852052	-0.043795632733194	-0.999038919137406	-0.999148645777255	-0.0410990170119586	0.00358530920952349
437	0.0001	-9.51900512695313	-0.214953002929687	-0.240100708007813	-0.0414112287113363	0.998207220951878	-0.0432140506796759	-0.00200147078567342	-0.0433339421930152	-0.999058638703808	-0.999140182482574	-0.0412857541234337	0.00379239438190215
438	0.0001	-9.50882629394531	-0.156275024414063	-0.101189575195313	-0.0415185256491138	0.998219416270524	-0.0428276663905235	-0.00220943058955692	-0.0429562493669815	-0.999074511263695	-0.999135291361682	-0.041385475965075	0.00398897665453046
439	0.0001	-9.50463500976563	-0.11256591796875	-0.20357666015625	-0.0416722010733889	0.998234348391338	-0.0423274538499633	-0.00249991133956551	-0.0424682952934597	-0.999094687373605	-0.999128209040758	-0.0415286598217332	0.00426524470780065
440	0.0001	-9.47349975585938	-0.228724365234375	-0.151484985351563	-0.0417874160083636	0.998251197953476	-0.0418133668555167	-0.00266462542319323	-0.0419611204261888	-0.999115691070825	-0.999122971227615	-0.0416390460629077	0.00441341231622616
441	0.0001	-9.49804870605469	-0.152083740234375	-0.182021484375	-0.0419256812866586	0.998263329279081	-0.0413831205359756	-0.00277022319817494	-0.0415355261478802	-0.999133187283383	-0.999116891615832	-0.0417746990924449	0.00450681746400605
442	0.0001	-9.51062255859375	-0.255668334960937	-0.182021484375	-0.0420437584046193	0.998273355725902	-0.0410198686853314	-0.00282482011375618	-0.0411747786133943	-0.999147966017778	-0.999111776915145	-0.0418920619435924	0.00455108509866686
443	0.0001	-9.53157897949219	-0.152682495117188	-0.2155517578125	-0.0421016587109027	0.998286817410907	-0.0406310289974735	-0.0029429605152354	-0.0407908216650247	-0.999163373954079	-0.999108997716064	-0.0419468598526159	0.00465527993879877
444	0.0001	-9.53756652832031	-0.183218994140625	-0.21794677734375	-0.0421352988703304	0.998300495144891	-0.0402583902133847	-0.00324140412538076	-0.040430550765036	-0.999177093344384	-0.999106655912373	-0.0419701317403347	0.0049394486833092
445	0.0001	-9.49565368652344	-0.17004638671875	-0.1389111328125	-0.0421096308887686	0.998309216333318	-0.040068535914955	-0.00352692635753743	-0.04025238837198	-0.999183319526912	-0.999106770959381	-0.0419339220000665	0.00521597630479409
446	0.0001	-9.47649353027344	-0.166453857421875	-0.186212768554688	-0.0422308927975361	0.998305983122494	-0.0400214411953589	-0.00375265293872373	-0.0402153866146605	-0.999183987199232	-0.99910083039173	-0.042046245269512	0.00544462756224551
447	0.0001	-9.53756652832031	-0.138312377929688	-0.192200317382813	-0.0422089079395636	0.998313299022634	-0.0398618249092235	-0.00415991058130927	-0.040072637325846	-0.999188109858052	-0.999100146749316	-0.0420088173160749	0.00584431631584836
448	0.0001	-9.43757446289063	-0.198187866210938	-0.2538720703125	-0.0422201124454088	0.998316760550086	-0.0397631451205585	-0.00417789346510827	-0.039974692945239	-0.999191958099207	-0.99909959829403	-0.0420198706413455	0.00585859710112913
449	0.0001	-9.50882629394531	-0.067060546875	-0.158670043945313	-0.0422281298809561	0.998315817814888	-0.0397782974415499	-0.00414312888332874	-0.0399884431907682	-0.999191552653562	-0.999099404228535	-0.0420291840483493	0.00582478827227007
450	0.0001	-9.55313415527344	-0.143701171875	-0.228125610351563	-0.0423724046200464	0.998328893034779	-0.0392937737901115	-0.00436431672374399	-0.0395136701806322	-0.999209498858168	-0.999092354122606	-0.0421674187117211	0.00603131270458557
451	0.0001	-9.50044372558594	-0.228125610351563	-0.230520629882813	-0.0426200423905561	0.998327817939236	-0.0390525276430345	-0.00449927454413673	-0.0392794355004238	-0.999218135581688	-0.999081222181262	-0.0424110112523954	0.00616584214406268
452	0.0001	-9.5369677734375	-0.159867553710937	-0.231718139648438	-0.042674275089669	0.998332174618498	-0.0388815556153734	-0.00476654126037945	-0.0391200045440303	-0.999223150917195	-0.999077667816664	-0.0424557930790979	0.00642800933730436
453	0.0001	-9.47110473632813	-0.243693237304688	-0.199984130859375	-0.0428583387681195	0.998333906111459	-0.0386338544061305	-0.00503352903550802	-0.0388846602308933	-0.999231027732915	-0.99906847932636	-0.0426309172662866	0.00669167464460296
454	0.0001	-9.46751220703125	-0.10777587890625	-0.278421020507813	-0.043061933438468	0.99834478573238	-0.0381229417740845	-0.00517350383184728	-0.0383806511778612	-0.999249798835739	-0.999059009641895	-0.0428323991405178	0.0068176856208374
455	0.0001	-9.49625244140625	-0.1389111328125	-0.207169189453125	-0.0432239215517313	0.998357887721477	-0.0375928268423798	-0.00544266250199921	-0.037862741768366	-0.999268127286501	-0.999050584320223	-0.0429876820739779	0.00707030121900598
456	0.0001	-9.51182006835938	-0.193397827148438	-0.163460083007813	-0.0433786876651568	0.99836671903572	-0.037177732290993	-0.0057213832475882	-0.037460398250228	-0.999281734215466	-0.99904231903868	-0.043134822183316	0.00733702153674964
457	0.0001	-9.50523376464844	-0.25147705078125	-0.216749267578125	-0.0436214440389578	0.998370019269034	-0.0368031825350227	-0.00594817740596143	-0.0370971337789517	-0.999293961680413	-0.999030424364295	-0.0433717337690885	0.00755671253654988
458	0.0001	-9.49565368652344	-0.183218994140625	-0.171243896484375	-0.0436967378722857	0.998374770211603	-0.0365843314036136	-0.00617402287115726	-0.0368884708439941	-0.99930031630155	-0.999025763702272	-0.0434402914783092	0.00777589450625249
459	0.0001	-9.52020263671875	-0.231718139648438	-0.214354248046875	-0.043745778654337	0.998379050478863	-0.0364084937184991	-0.00642339350810772	-0.0367237066341314	-0.999304813050998	-0.999022045235122	-0.0434815010777512	0.0080194886532603
460	0.0001	-9.54774536132813	-0.146694946289063	-0.18920654296875	-0.0438308817772974	0.998383044021867	-0.0361960109992125	-0.00662547349693837	-0.036520522193702	-0.999310939877895	-0.999016995302666	-0.043560863952978	0.00821548708867714
461	0.0001	-9.49505493164063	-0.228125610351563	-0.204175415039063	-0.0438917909390028	0.998388024585434	-0.0359842055985992	-0.00693106021918377	-0.0363223630179427	-0.999316089307598	-0.999012247718918	-0.0436123641779276	0.00851414108450765
462	0.0001	-9.44954956054688	-0.176033935546875	-0.242495727539063	-0.0440690457403507	0.9983816782816	-0.0359436180587177	-0.00719145836224638	-0.036294663021649	-0.999315255744037	-0.999002603667357	-0.0437803826817564	0.00877929143382339
463	0.0001	-9.50223999023438	-0.188607788085938	-0.1963916015625	-0.0442117586124207	0.998381302758483	-0.0357784111255973	-0.0075181741419959	-0.0361449195973182	-0.99931827855037	-0.998993892602937	-0.0439126301828828	0.00910403495455325
464	0.0001	-9.44895080566406	-0.222138061523438	-0.273630981445313	-0.0442786902073358	0.998377037674431	-0.0358146372025664	-0.00770937799770777	-0.0361902072226562	-0.999315182708674	-0.998989470957733	-0.0439722588185992	0.00929932094181518
465	0.0001	-9.54475158691406	-0.120948486328125	-0.199984130859375	-0.0444377332680563	0.998387028998496	-0.0353359334043009	-0.00772719753791057	-0.0357133198177469	-0.999332201625569	-0.998982271254204	-0.0441350100844152	0.00930175277253698
466	0.0001	-9.48727111816406	-0.195792846679688	-0.250279541015625	-0.044589942535424	0.998396005290985	-0.034887729127735	-0.00809551092055333	-0.0352824346178381	-0.999344591475019	-0.998972572059725	-0.0442782839148109	0.00965576749598918
467	0.0001	-9.51541259765625	-0.217348022460938	-0.253273315429688	-0.0446925378555308	0.998405233493973	-0.034490097011726	-0.00836822115213454	-0.0348975310198302	-0.999355860143657	-0.998965740120642	-0.0443751288512643	0.00991453501949446
468	0.0001	-9.5273876953125	-0.145497436523437	-0.248483276367188	-0.0447035158259243	0.998417057871993	-0.0341317187237114	-0.00881733368037235	-0.0345588735120523	-0.999363767047989	-0.998961385790047	-0.0443741232230135	0.0103482795004052
469	0.0001	-9.58666442871094	-0.103584594726563	-0.2730322265625	-0.0446278741256565	0.998434689556996	-0.033712364797644	-0.0094592761810649	-0.0341668015115687	-0.99937137830168	-0.998958895523312	-0.0442809255062938	0.0109692611944102
470	0.0001	-9.50882629394531	-0.183817749023438	-0.165855102539063	-0.0446351098456476	0.998448632932067	-0.0332871501506822	-0.01030250231927	-0.0337786432325937	-0.999376236313095	-0.998950231700773	-0.0442643271433356	0.0117942328075784
471	0.0001	-9.45433959960937	-0.123942260742188	-0.128133544921875	-0.0446302896391163	0.998459832082352	-0.0329560459522836	-0.0110401678305784	-0.0334798514144124	-0.999378413937154	-0.998942566888108	-0.0442387077947504	0.01251737958398
472	0.0001	-9.4794873046875	-0.113763427734375	-0.1197509765625	-0.0446794062515166	0.998466809247444	-0.0326769259300694	-0.0118527984435506	-0.0332371098582451	-0.999377208914296	-0.998931059596241	-0.0442642672987846	0.0133196401765678
473	0.0001	-9.40823547363281	-0.240699462890625	-0.0281414794921875	-0.0448772376744814	0.998457776951393	-0.0326818173299873	-0.0122507783198971	-0.0332623581455171	-0.999371569518143	-0.998917389962386	-0.0444486577511842	0.0137246076393189
474	0.0001	-9.48966613769531	-0.19399658203125	-0.0329315185546875	-0.0449989166407069	0.998452254028487	-0.0326832361708039	-0.0125397421508316	-0.0332783437316446	-0.999367453294968	-0.998908330312624	-0.0445606133700194	0.0140178232309551
475	0.0001	-9.51840637207031	-0.2059716796875	-0.0508941650390625	-0.0449975716283612	0.998450764176657	-0.0327305677097288	-0.0127582403307543	-0.0333354455896513	-0.999362784663809	-0.998905624096297	-0.0445513140366257	0.014238488908475
476	0.0001	-9.43817321777344	-0.174237670898438	-0.113763427734375	-0.0450014068910748	0.998443136233096	-0.0329572008344698	-0.0128905660306831	-0.0335682420050669	-0.999353294103791	-0.998903752463286	-0.0445474672423576	0.0143811152925832
477	0.0001	-9.5034375	-0.120349731445313	-0.029937744140625	-0.0449327588778712	0.998438898859389	-0.0331784933966933	-0.0132036760800198	-0.033802685852331	-0.999341303743192	-0.998902753083401	-0.0444650837581574	0.0147019117390583
478	0.0001	-9.52020263671875	-0.3113525390625	-0.013172607421875	-0.0449068986975208	0.99844313201262	-0.0330859877621967	-0.0131565460845028	-0.0337076189494577	-0.999345136436799	-0.998904537853592	-0.0444421934830831	0.0146497677085776
479	0.0001	-9.52140014648437	-0.15328125	0.0401165771484375	-0.0447787662563152	0.998438677115981	-0.033392665833271	-0.0132286898788082	-0.0340158917872975	-0.999333738482798	-0.998909337155606	-0.0443071906670361	0.0147312252899187
480	0.0001	-9.48487609863281	-0.145497436523437	-0.0185614013671875	-0.0446788004947635	0.998445441746668	-0.0333242350497439	-0.0130079052857013	-0.0339361526498814	-0.999339347740998	-0.998916712837676	-0.0442158048510417	0.014503910332985
481	0.0001	-9.51900512695313	-0.0952020263671875	-0.0724493408203125	-0.0447763234902328	0.99844692184283	-0.0331485311480766	-0.0129191653461588	-0.0337577711099774	-0.999346540523579	-0.998913497767177	-0.0443188126224446	0.0144106497521805
482	0.0001	-9.58426940917969	-0.126337280273438	-0.128732299804688	-0.0447132757510722	0.998451713669677	-0.033089249639332	-0.0131711613880935	-0.0337086896045416	-0.999344907803524	-0.998913030988833	-0.0442481605858382	0.0146579945924569
483	0.0001	-9.53517150878906	-0.0880169677734375	-0.0245489501953125	-0.0446534612186443	0.998455892735649	-0.0330438899443472	-0.0135261697857155	-0.0336781134379213	-0.999341196692196	-0.998910962564794	-0.044177086104921	0.0150091282610081
484	0.0001	-9.5417578125	-0.106578369140625	-0.116757202148438	-0.0445225497616912	0.998474563013581	-0.0326540897523772	-0.0137392698684412	-0.0332953983269105	-0.999351113930302	-0.998913897704001	-0.0440450163479473	0.0152007075068629
485	0.0001	-9.47589477539062	-0.0592767333984375	-0.0425115966796875	-0.0446149722091248	0.998480850393433	-0.0323341251990312	-0.0140575295119001	-0.0329906217232034	-0.999356795515165	-0.998905345925629	-0.0441317377396824	0.0155080496928155
486	0.0001	-9.45433959960937	-0.094603271484375	-0.06466552734375	-0.0446476217806584	0.998487228447378	-0.0320911903301281	-0.0141940640115741	-0.0327540175039251	-0.999362648333521	-0.998901956358164	-0.0441636611347588	0.0156349806206336
487	0.0001	-9.53996154785156	-0.092208251953125	-0.1197509765625	-0.0448546816652298	0.998492340345237	-0.0316402244714434	-0.0144283407697356	-0.0323163038674987	-0.999373543519627	-0.99888932345648	-0.0443700662185207	0.0158561252650457
488	0.0001	-9.46811096191406	-0.070653076171875	-0.0736468505859375	-0.0450535849113493	0.998495034573086	-0.0312704400277373	-0.0144412370441597	-0.0319499260378212	-0.999385137421411	-0.998880185587476	-0.0445742993110407	0.0158589621873432
489	0.0001	-9.54475158691406	-0.12214599609375	-0.108973388671875	-0.0451336665446322	0.998503996112971	-0.0308661933297079	-0.0146194406579975	-0.0315545573160021	-0.999395107986546	-0.998873978086869	-0.0446551190684797	0.0160217427858111
490	0.0001	-9.51541259765625	-0.104183349609375	-0.056282958984375	-0.0451849636230625	0.99851085840211	-0.0305677070691115	-0.0147638001556681	-0.0312630889830792	-0.99940214602141	-0.99886953565886	-0.0447066540944026	0.0161544363051584
491	0.0001	-9.47110473632813	-0.143102416992188	-0.14609619140625	-0.0451869820672333	0.998522644333754	-0.0301772332128694	-0.0148171418976883	-0.0308746870015396	-0.999413430972659	-0.998868654507508	-0.0447133364365189	0.0161903856370182
492	0.0001	-9.54056030273438	-0.111368408203125	-0.02634521484375	-0.0452467542109459	0.998535485271736	-0.0296583190102561	-0.0148482628872298	-0.0303576733544708	-0.999428807248288	-0.998865486600977	-0.0447805350754446	0.0162001035722285
493	0.0001	-9.41182800292969	-0.127534790039063	-0.218545532226563	-0.0450624479288129	0.998536682669699	-0.0298976445503017	-0.0149819890589014	-0.0306001893355483	-0.999419415669151	-0.998871821501889	-0.0445883591940964	0.0163389850932142
494	0.0001	-9.50523376464844	-0.085023193359375	-0.0622705078125	-0.0451913501249241	0.998535481544667	-0.0297427969472774	-0.0150106086985562	-0.0304485958850982	-0.999423616208425	-0.998865568282532	-0.0447188450766167	0.0163646385425473
495	0.0001	-9.51122131347656	-0.0880169677734375	-0.175435180664062	-0.0452522456474267	0.99854005871127	-0.0294955151295567	-0.0151786688929207	-0.0302096265579852	-0.999428329833544	-0.998860271646893	-0.0447786736306474	0.0165235623694151
496	0.0001	-9.52319641113281	-0.161663818359375	-0.191002807617188	-0.0453330048250308	0.998541750902638	-0.0293136551427457	-0.0154195470132745	-0.0300397592521476	-0.999429762631661	-0.998852920225715	-0.0448551509680561	0.0167588540238811
497	0.0001	-9.52619018554688	-0.0496966552734375	-0.164058837890625	-0.0454256729767196	0.998544810556077	-0.0290649195103234	-0.0157502203585076	-0.0298072376172731	-0.999431568014682	-0.998843550709154	-0.0449420726842552	0.0170813146324442
498	0.0001	-9.52678894042969	-0.127534790039063	-0.10298583984375	-0.0454129331728314	0.998556557897875	-0.0286786711649422	-0.016107018567306	-0.0294364781630556	-0.999436870295582	-0.998838440116074	-0.0449254319122576	0.0174205658342285
499	0.0001	-9.51122131347656	-0.137713623046875	-0.087418212890625	-0.0454732575506919	0.998563264424204	-0.0283476593426464	-0.0163832033087222	-0.0291186660395282	-0.999441691114306	-0.998831203706149	-0.044983443960603	0.0176837855780312
500	0.0001	-9.49744995117188	-0.154478759765625	-0.0987945556640625	-0.0454767478884922	0.998574008316096	-0.0279609605881599	-0.0166837391072671	-0.0287452256410107	-0.999447529814471	-0.998826070069703	-0.0449851299695077	0.017967187613518
501	0.0001	-9.51720886230469	-0.122744750976563	-0.140108642578125	-0.045342519987747	0.998593682019518	-0.0274720605682054	-0.0170218083084989	-0.0282686663053234	-0.99945542199101	-0.998826468373295	-0.0448502032996579	0.0182796428003904
502	0.0001	-9.48667236328125	-0.141904907226563	-0.080233154296875	-0.0454847059872889	0.998596970468093	-0.0271151635288614	-0.0171729112607846	-0.0279208708361734	-0.999462613653247	-0.998817417068845	-0.0449946168302023	0.0184187897600292
503	0.0001	-9.49325866699219	-0.039517822265625	-0.109572143554688	-0.0455386040523484	0.998605138045289	-0.0267210368532682	-0.0174939509524611	-0.0275418767691413	-0.999467561606732	-0.998809389834235	-0.0450469010430653	0.0187237679268887
