// Start Time: Unknown
// Update Rate: 100.0Hz
// Filter Profile: human (46.1)
// Option Flags: AHS Disabled ICC Disabled 
// Firmware Version: 4.0.2
PacketCounter	SampleTimeFine	Acc_X	Acc_Y	Acc_Z	Mat[1][1]	Mat[2][1]	Mat[3][1]	Mat[1][2]	Mat[2][2]	Mat[3][2]	Mat[1][3]	Mat[2][3]	Mat[3][3]
1	9.141516	-2.07827819824219	-8.74301879882812	1.89625671386719	0.934609478199772	-0.135629877807716	0.328800333796994	-0.285100548712428	0.267039909180634	0.92054731764786	-0.212656531484512	-0.954093403787419	0.210909877593048
2	9.141516	-1.30947692871094	-9.95190490722656	0.729882202148438	0.936383417065949	-0.129593859553108	0.326177141765065	-0.284466822606421	0.264127512346173	0.9215830315593	-0.205583858997015	-0.955741643326245	0.210459469095463
3	9.141516	-1.13284423828125	-9.51601135253906	1.16817077636719	0.937489402506584	-0.125712186925117	0.324515124834505	-0.284064897383862	0.262277231347234	0.922235212942515	-0.20104913395025	-0.956769094387635	0.210171705428015
4	9.141516	-1.70285888671875	-9.18310363769531	0.74006103515625	0.937528531389021	-0.122533449821651	0.325616041537192	-0.286293193157947	0.260062716807536	0.92217329763885	-0.197677667891374	-0.957785433696655	0.208735724339509
5	9.141516	-1.18553466796875	-8.59931762695313	1.15739318847656	0.93794706259966	-0.119402202713883	0.325573988131334	-0.287408781840573	0.257673470130202	0.922496924066405	-0.194039944036241	-0.95882610351311	0.207366832787406
6	9.141516	-1.27834167480469	-9.53397399902344	0.764609985351563	0.93785871469019	-0.117765988739364	0.326423349618108	-0.289240630835566	0.254436971939923	0.922822672447902	-0.191731293099248	-0.959892181031955	0.204563222599293
7	9.141516	-1.6813037109375	-9.32979858398438	1.312470703125	0.937502233923632	-0.116767383153419	0.327803202576945	-0.291259037895848	0.252164540608496	0.922811582774995	-0.19041463765211	-0.960613565743899	0.202395264461911
8	9.141516	-0.853225708007812	-9.26992309570313	0.692759399414063	0.937764177570213	-0.115964075450778	0.327338785466845	-0.291684831641676	0.24852260478002	0.923664697768363	-0.188463010312979	-0.961659424182075	0.1992306342548
9	9.141516	0.211959228515625	-9.32919982910156	0.229921875	0.937712109832628	-0.114929783184845	0.327852320428462	-0.293251547048894	0.244147937097126	0.924335066393485	-0.186278096475867	-0.962903385469333	0.19523714048568
10	9.141516	-1.69327880859375	-9.94292358398438	0.202379150390625	0.936929650081552	-0.116391990901411	0.32956901439921	-0.295238395142298	0.241138050776794	0.924492688181669	-0.187075174279916	-0.963486037740856	0.191566004934499
11	9.141516	-0.971180419921875	-9.47050598144531	-0.144898681640625	0.936202431060627	-0.114627877268806	0.332243070400304	-0.298618406279057	0.239083155751177	0.923940632328406	-0.185343075153968	-0.964209362321745	0.189600237614736
12	9.141516	-1.75016052246094	-9.40464294433594	1.52981872558594	0.936070527844704	-0.114403275482828	0.332691835576613	-0.299371100025491	0.237695369322595	0.924055115170152	-0.184794240630123	-0.964579080200994	0.18825059540023
13	9.141516	-0.829874267578125	-10.0417181396484	0.265248413085937	0.93559481412508	-0.111191240989877	0.33511020830376	-0.302979302599159	0.234497787544885	0.923696015923573	-0.181289508738885	-0.965736659531824	0.185706269300551
14	9.141516	-0.613723754882812	-9.43937072753906	0.13172607421875	0.935544930789615	-0.109829839193912	0.335697913154809	-0.303948451575709	0.233798285464219	0.923554925545157	-0.179919485488881	-0.966061989800153	0.185346191233555
15	9.141516	-0.72569091796875	-9.07832153320313	-0.417332153320313	0.935514700874719	-0.108002133444771	0.336374469332413	-0.305371739947384	0.231577282262161	0.923644987417557	-0.177652314617042	-0.966802721092286	0.183663152536807
16	9.141516	-1.34959350585938	-8.89151000976562	0.675994262695312	0.935463595801355	-0.10620461227184	0.337088180247524	-0.306138767017621	0.233084640311307	0.923011704031904	-0.176598177395266	-0.966639607497612	0.185528846699195
17	9.141516	-0.03113525390625	-9.56630676269531	0.410147094726563	0.93634213273788	-0.103669501469537	0.335434114134112	-0.305342635397157	0.231111539561236	0.923771254851738	-0.173289600001263	-0.967388283341644	0.184744753064085
18	9.141516	-0.346679077148438	-9.44475952148438	0.0952020263671875	0.936725161978611	-0.101087925484603	0.33515250593926	-0.305554636553739	0.231097771460519	0.923704597859345	-0.170828378780162	-0.967664741192528	0.185587213072831
19	9.141516	0.176033935546875	-9.22022644042969	0.612526245117188	0.937597502205706	-0.0985951210053853	0.333451534666667	-0.30456798808667	0.229843598402153	0.924343151057219	-0.167777425449493	-0.968220492650039	0.185471866120058
20	9.141516	-0.24189697265625	-9.58307189941406	0.142503662109375	0.937758514702085	-0.0964791053751037	0.333617670889539	-0.305119768897592	0.229914515758223	0.924143518113687	-0.165864085116764	-0.968416799559819	0.186166612470383
21	9.141516	-0.191002807617188	-9.148974609375	0.274828491210937	0.937754588638175	-0.093994482945276	0.334337208015945	-0.306122738687588	0.230962677867347	0.923550274912392	-0.164028047438413	-0.968411729900147	0.187812462433533
22	9.141516	0.339494018554688	-9.61300964355469	0.315543823242187	0.93839972164414	-0.0929921062482625	0.332803892095198	-0.304985445896721	0.229885063553352	0.924195182494612	-0.162449500489779	-0.968764845424618	0.187362840659609
23	9.141516	0.24189697265625	-10.3626507568359	0.162861328125	0.93888486936549	-0.0933810364021191	0.331323382991624	-0.303907392409283	0.227169789002511	0.925221153997003	-0.16166477326721	-0.96936776767387	0.184907090397964
24	9.141516	-0.075443115234375	-10.1890118408203	0.38080810546875	0.939350063341846	-0.0925748687628352	0.33022924185059	-0.303275476550548	0.225389618205218	0.925863653746244	-0.16014194897874	-0.96986051248561	0.183644064697012
25	9.141516	-0.712518310546875	-9.74174194335938	0.391585693359375	0.939828130620474	-0.0922348796974863	0.328961717927203	-0.301855360132615	0.2268117636341	0.925980434694167	-0.160020081407415	-0.969561318764512	0.185322482991095
26	9.141516	-0.23710693359375	-9.04958129882812	1.3268408203125	0.940808473701053	-0.0911372819636476	0.326455834146941	-0.299344115179895	0.228336702984325	0.926420774150393	-0.158973320149835	-0.96930714735141	0.187539695995305
27	9.141516	0.393980712890625	-9.36392761230469	0.249680786132812	0.942068736785083	-0.090763993949881	0.322906166826254	-0.296014816969423	0.227755833050423	0.927632744487853	-0.157739415831039	-0.969478817671523	0.187694162880758
28	9.141516	-0.513132934570313	-9.92855346679688	0.432301025390625	0.942615398099693	-0.0887221320409397	0.321876675997917	-0.295501633732059	0.227067518227966	0.927965046016	-0.155418775336322	-0.9698292248906	0.187819804123675
29	9.141516	0.187410278320313	-9.15975219726563	0.507744140625	0.943362361692863	-0.0886055963969264	0.319713157108695	-0.293567062485605	0.225982881681929	0.928843429761068	-0.154550426608396	-0.970093183912698	0.187172060311593
30	9.141516	0.119152221679688	-9.60342956542969	0.28500732421875	0.943612561045281	-0.0895304495113883	0.318715599316781	-0.292400138581786	0.226039077985354	0.929197769143299	-0.155233674165493	-0.969995172067274	0.187114597429654
31	9.141516	-0.135917358398437	-9.09568542480469	0.825682983398437	0.944551897348192	-0.0901255071142525	0.315751652700871	-0.289435644199988	0.225618011873815	0.930227671371179	-0.155076500742279	-0.970038094966124	0.187022386980874
32	9.141516	-0.831670532226563	-9.513017578125	1.68250122070313	0.94532089120977	-0.0893244438060581	0.313671095864929	-0.287779322273168	0.224101685027954	0.931107671775734	-0.153464896032817	-0.970463589479982	0.186142276711302
33	9.141516	0.0161663818359375	-9.74114318847656	0.972976684570312	0.944801486425186	-0.0881025433545479	0.315575811974271	-0.290062321469867	0.222980214472716	0.930668401535807	-0.152361415431441	-0.970833541760977	0.185116809824409
34	9.141516	0.447269897460938	-9.22441772460938	0.392184448242188	0.945332565143902	-0.0885894617025028	0.31384430623115	-0.288540613571067	0.221223300818453	0.931560285486141	-0.151956097602179	-0.971191102950521	0.183567932796739
35	9.141516	0.297581176757813	-9.0483837890625	1.75375305175781	0.941441281652666	-0.085615001422973	0.326126332471835	-0.301472552256943	0.219439262354386	0.927879685289557	-0.151005342408374	-0.971862377946954	0.180778607405363
36	9.141516	0.774788818359375	-8.67715576171875	-0.25147705078125	0.93990040929564	-0.0791896751732967	0.332138850410241	-0.309588932955933	0.212647515497615	0.926787854227654	-0.144020530470816	-0.973914795810516	0.175351239813882
37	9.141516	-2.27227478027344	-12.1888531494141	-0.202977905273438	0.939794046321201	-0.0858464013296657	0.330783230950377	-0.306930207028511	0.21358701081296	0.927455894814099	-0.150269752487519	-0.973144893728951	0.174378947400795
38	9.141516	0.553848266601562	-9.80101867675781	2.46148132324219	0.944955840436679	-0.0863110757208755	0.315608710007368	-0.291768606539286	0.214281245907754	0.932177358602077	-0.148086258183307	-0.97295115286438	0.177303452524594
39	9.141516	-1.02686462402344	-10.7416625976563	-1.43701171875	0.941516780922127	-0.0885530715220612	0.325122292016473	-0.300790090335905	0.21405969847557	0.929356641469929	-0.151892964938321	-0.972798436991218	0.174904911851237
40	9.141516	-0.707129516601563	-9.29866333007813	-1.41605529785156	0.945644989504084	-0.0921164909527202	0.311881557518843	-0.287431131875873	0.211845182720401	0.934079741235573	-0.152114753572348	-0.972952296185542	0.17385318833115
41	9.141516	-1.05320983886719	-9.62079345703125	-1.87889282226563	0.945410211406361	-0.0931375671656828	0.31228981051427	-0.287842531516298	0.210648371523941	0.934223710159724	-0.152794663581126	-0.973114924948112	0.172340168342615
42	9.141516	-0.6083349609375	-9.51182006835938	0.229921875	0.946149524245236	-0.0945115282217602	0.309626628059831	-0.284701748068115	0.212345446267236	0.934801757645185	-0.154097347211018	-0.972613480516673	0.174002945664064
43	9.141516	-0.647254028320313	-9.67228637695313	0.105979614257813	0.946516367389444	-0.0948947126114499	0.3083857321315	-0.283638203826763	0.21089131262109	0.935454020030317	-0.15380551223483	-0.972892516046528	0.172696313298337
44	9.141516	-0.544268188476563	-9.05556884765625	0.308358764648438	0.946459794131068	-0.0957457665865371	0.308296296238102	-0.283298847228754	0.21153111346709	0.93541239632273	-0.154776035781495	-0.972670209380409	0.173081028803379
45	9.141516	-0.929866333007813	-9.99800903320313	-0.86939208984375	0.947965458833691	-0.0945240907337453	0.304017573717688	-0.279518151941921	0.210052278191934	0.936881872575914	-0.152417491099952	-0.973110084572828	0.172701105119392
46	9.141516	-0.31853759765625	-10.3494781494141	0.362845458984375	0.94876577232176	-0.0929239899711918	0.302007684270663	-0.27812498791027	0.208032787438173	0.937746687784402	-0.14996666419777	-0.973697844014527	0.171529904654715
47	9.141516	-1.59089172363281	-8.60470642089844	-2.00942138671875	0.948594062353702	-0.0949206908454514	0.301926095786243	-0.278170637647414	0.204987186592006	0.938403617684803	-0.150964900616442	-0.974151074414291	0.168045478961355
48	9.141516	-0.645457763671875	-10.6177203369141	1.79686340332031	0.949079526722832	-0.0900146027060821	0.301903003057659	-0.278779100644891	0.206376184049016	0.93791848457155	-0.146731949483376	-0.974323479116168	0.170773221096795
49	9.141516	-0.601748657226563	-9.86628295898438	-1.54359008789063	0.950694791358933	-0.0878438642744372	0.297427082143388	-0.275280794974854	0.202658068128093	0.939760709617401	-0.142828210102234	-0.975301575376521	0.168484241005111
50	9.141516	0.192200317382813	-10.1093774414063	-1.17535583496094	0.951571073252322	-0.0834127402296197	0.295896615926595	-0.274962258426267	0.199585411692137	0.940511254521076	-0.13750726886442	-0.976323705646374	0.166984348974333
51	9.141516	0.3017724609375	-10.0177679443359	-0.298778686523438	0.952568444147121	-0.0818469537218416	0.293111643203726	-0.27270942499494	0.197895723881649	0.941523686366035	-0.135066386395959	-0.976800060726766	0.16618878611424
52	9.141516	0.37122802734375	-9.359736328125	0.314346313476562	0.951906526100863	-0.0819308825479014	0.295230919877152	-0.275128849389761	0.195447059064568	0.941331271836051	-0.134826116906383	-0.977285924173644	0.163505781585892
53	9.141516	-0.201780395507813	-10.4141436767578	-1.13583801269531	0.952659189866469	-0.0833352644800297	0.292396480240457	-0.272350832143311	0.19358826935367	0.942522469864511	-0.135149887879384	-0.977537117281331	0.161727215222099
54	9.141516	0.640068969726563	-10.2291284179688	-0.750239868164063	0.955524955441277	-0.0803202663370149	0.283761721069803	-0.264232831352664	0.194141083354559	0.944717021435135	-0.130969730717827	-0.977679852799202	0.164283398632457
55	9.141516	0.442479858398438	-8.84480712890625	-1.09212890625	0.954803521205214	-0.0814206452639031	0.285868701362943	-0.266952054196412	0.188055501482969	0.945183436758339	-0.130716627306711	-0.978777710661005	0.157820646490755
56	9.141516	0.661624145507813	-10.2165545654297	-0.659827880859375	0.956100699462438	-0.0801836601014582	0.281854631220014	-0.263337735802618	0.186831904624345	0.94643915616208	-0.128548393182439	-0.979114099616165	0.157514731193751
57	9.141516	0.729283447265625	-9.42320434570312	0.281414794921875	0.958365630250105	-0.0739209557301027	0.275809737063918	-0.257775269653622	0.191525357530992	0.947032178850132	-0.122830082269459	-0.978700020295583	0.164496325682685
58	9.141516	-0.0065863037109375	-9.49265991210938	-0.7616162109375	0.960638047974801	-0.0721256741719736	0.268276774821085	-0.25056350335553	0.192085191796903	0.948852575418622	-0.119968627438044	-0.9787242544341	0.166452282090233
59	9.141516	0.003592529296875	-10.7284899902344	-1.86152893066406	0.960834791896034	-0.0807846462621474	0.265085540176006	-0.246351596875981	0.189088341871113	0.950555884567071	-0.126914906133043	-0.978631411664644	0.161781231001956
60	9.141516	0.569415893554688	-7.64370483398438	1.14721435546875	0.961145663787067	-0.0791326675096335	0.26445610962148	-0.24560322236055	0.192175026756029	0.950130420656782	-0.126008214610924	-0.978165006542419	0.165272955520368
61	9.141516	-0.161065063476563	-9.82916015625	-0.972976684570312	0.9613886093676	-0.0803802607759641	0.263193760290438	-0.244415479308719	0.190101937004643	0.950853472950156	-0.126463493754213	-0.978468327144354	0.163115656890464
62	9.141516	0.365240478515625	-9.69324279785156	-0.282013549804688	0.959561674655893	-0.0831553543941982	0.268936013890207	-0.249420780217578	0.191751099449694	0.949221149287925	-0.130501597412571	-0.977914466042613	0.163256332732787
63	9.141516	0.583786010742188	-8.73822875976563	-0.152083740234375	0.95801780036343	-0.0814942520232924	0.274882849726897	-0.256375330174083	0.185702398636841	0.948570666433795	-0.128349461490673	-0.979220764704103	0.157013087694517
64	9.141516	-1.00171691894531	-10.3009790039063	0.272433471679688	0.957136055117438	-0.0805876045785187	0.27820174331324	-0.25990387138789	0.184947235613304	0.94775761546747	-0.127830159320158	-0.979438695390015	0.156074637083959
65	9.141516	-0.199984130859375	-9.28070068359375	0.4837939453125	0.954641085133302	-0.0796897746433831	0.286897086762482	-0.267742098590044	0.191859008852726	0.944195048369058	-0.130286481332913	-0.978181813641685	0.161820184904579
66	9.141516	0.565224609375	-9.61061462402344	-0.207169189453125	0.95300575093792	-0.0802836943539001	0.29212080908443	-0.272244582403909	0.196053150688233	0.942043549660492	-0.132901941411604	-0.977301228141102	0.164982979252164
67	9.141516	1.14242431640625	-9.80341369628906	0.0592767333984375	0.955442764122	-0.0770916559551971	0.284931572608227	-0.265705692994857	0.195823759220431	0.943956323160611	-0.128567527770563	-0.977604179566998	0.166614701920633
68	9.141516	0.17483642578125	-9.97585510253906	-0.532293090820313	0.956926656674195	-0.0753827325006939	0.280372640225607	-0.261436013185663	0.196248726923362	0.945059600337749	-0.12626394875789	-0.977652228975974	0.168087877083317
69	9.141516	0.337098999023438	-9.05916137695313	-0.17004638671875	0.958948870899302	-0.0736837140471155	0.273838955017684	-0.254519990399299	0.202177341178716	0.945697571743232	-0.125046541288013	-0.976573106837439	0.175123754852896
70	9.141516	0.479602661132813	-8.6172802734375	1.18194213867188	0.960762661190944	-0.0708288991756802	0.268176016643655	-0.2486936931822	0.208172846982946	0.945946886854866	-0.122827341551847	-0.975524132361971	0.182389997935
71	9.141516	1.13284423828125	-10.3854034423828	0.523311767578125	0.961366314532624	-0.0692374892616189	0.266422557908873	-0.247607629625965	0.205367417684971	0.946844594167606	-0.120271655151871	-0.976232755972752	0.18028958686756
72	9.141516	0.513132934570313	-9.74234069824219	0.4646337890625	0.961270902581478	-0.0673418234492553	0.267251437161189	-0.249082778953214	0.202776837370409	0.947016010136576	-0.117966186168478	-0.976906665470445	0.178149784957154
73	9.141516	0.322728881835938	-9.54295532226562	0.325123901367187	0.961367204764513	-0.0686379268345614	0.26657444101624	-0.248514090940315	0.200052415865733	0.947744573980982	-0.118380083660115	-0.977378056795904	0.175266339855909
74	9.141516	0.711919555664063	-10.0219592285156	-0.01916015625	0.961633137491271	-0.0688881975781481	0.265548724555642	-0.247567921718286	0.199149682466101	0.948182223050897	-0.118202508496152	-0.977544791919064	0.174454426074926
75	9.141516	2.78181518554688	-8.92444152832031	8.89270751953125	0.963791241639818	-0.0675494741486502	0.257960289735879	-0.240090956978373	0.201108951085797	0.949690224320741	-0.116029198547551	-0.97723705329639	0.177609027780127
76	9.141516	0.343685302734375	-10.3554656982422	-0.938248901367188	0.965281162070377	-0.0678901240514294	0.252236415309813	-0.23503836978126	0.195577404924701	0.952106319385334	-0.113970359667022	-0.978335530244712	0.172830400619129
77	9.141516	0.169447631835938	-9.67647766113281	-0.676593017578125	0.966971123159474	-0.0675967508985679	0.245759081711467	-0.228898832478429	0.193854878755334	0.953952624857633	-0.112125694939735	-0.978698607974238	0.171979252479972
78	9.141516	0.391585693359375	-9.69743408203125	-0.5125341796875	0.96870952115763	-0.0673348160599556	0.238888857347363	-0.222292564883722	0.192743420258937	0.955738452477613	-0.110398728325887	-0.978936155473409	0.171744357377377
79	9.141516	0.411943359375	-9.45014831542969	-0.510737915039063	0.969731399603776	-0.0675793057618348	0.234635994798859	-0.217976263900239	0.193438538711885	0.956591804333021	-0.110033453997387	-0.978782186788133	0.172852740295449
80	9.141516	0.487386474609375	-9.37590270996094	0.104183349609375	0.971430229463814	-0.0658041737284726	0.228019999131206	-0.211253392682967	0.198052943884842	0.957155700760584	-0.108144872110602	-0.977979980438486	0.178493261771197
81	9.141516	0.0544866943359375	-8.84480712890625	-0.267044677734375	0.971707163376193	-0.0632384063526696	0.227565578691874	-0.211230203765324	0.198400876551432	0.957088759311739	-0.10567397816233	-0.978078726967108	0.179429691505473
82	9.141516	0.626896362304687	-10.6512506103516	-0.31374755859375	0.971459239202939	-0.0630836040766284	0.228664394832145	-0.212298773605867	0.198786282523001	0.956772305517949	-0.105811990306831	-0.9780104665991	0.179720199003669
83	9.141516	0.429906005859375	-9.21843017578125	-0.13172607421875	0.971033783909226	-0.0638789029107057	0.230245252437171	-0.213969684765588	0.196421929069046	0.956888394632368	-0.106350197499801	-0.978436462701447	0.17706418030769
84	9.141516	-0.10777587890625	-10.1878143310547	-0.299976196289063	0.972188263482258	-0.0636282537988136	0.225391716054218	-0.209386889745895	0.194977889474749	0.958196615010987	-0.104914778510427	-0.978741573621192	0.176232293622996
85	9.141516	0.478405151367188	-9.42619812011719	0.04071533203125	0.973513559603768	-0.063186518301907	0.219724402769662	-0.20396977373884	0.194128113996667	0.959536662539282	-0.103284464797608	-0.978939088636765	0.176098211434676
86	9.141516	0.787362670898438	-9.57708435058594	0.140707397460937	0.974237638389348	-0.0628165934268527	0.216598937060626	-0.201313691939944	0.190684306162041	0.960787329652619	-0.101655405085301	-0.979639510725117	0.173125987775368
87	9.141516	0.652044067382813	-9.48188232421875	-0.0257464599609375	0.974245673734316	-0.0625436994358699	0.21664176160391	-0.201314852161359	0.191539863794989	0.960616890792915	-0.101576067600691	-0.979490054180374	0.174015908044371
88	9.141516	-0.058677978515625	-9.56870178222656	-0.138312377929688	0.974971753324575	-0.0628840412669229	0.213250269807907	-0.197869236245319	0.191944967824101	0.961251733249256	-0.101379709838307	-0.979388955768312	0.174698104603788
89	9.141516	0.373623046875	-9.82257385253906	0.01916015625	0.97615109494187	-0.062370708384399	0.207939737855509	-0.192526168190299	0.193881733935259	0.961947788504251	-0.100313081927285	-0.979040227969151	0.177249873377568
90	9.141516	0.441881103515625	-9.9249609375	0.468825073242188	0.977159826346579	-0.0619610913359464	0.203271977741109	-0.187577251610676	0.198038641531461	0.962078723981857	-0.0998671540222731	-0.978233877771994	0.1818929133492
91	9.141516	0.508342895507813	-9.47649353027344	0.261655883789063	0.978024501246512	-0.0609286511576745	0.199388501247231	-0.18363793039138	0.201072713013336	0.962209371500313	-0.0987177060262314	-0.977679632369194	0.185465228459017
92	9.141516	0.801134033203125	-9.09568542480469	0.5987548828125	0.978461906317289	-0.0614240009562673	0.197077116866623	-0.181494746612259	0.198856709665854	0.963076147546508	-0.0983460972183844	-0.978101784645849	0.183425581734166
93	9.141516	0.854423217773438	-9.29866333007813	1.09272766113281	0.978666565247009	-0.0613460217812041	0.196082685822189	-0.180725047582354	0.196911320394459	0.963620459038136	-0.0977251822407063	-0.978500177573889	0.181623762883302
94	9.141516	1.044228515625	-9.41661804199219	0.47660888671875	0.97923514003166	-0.0613333665830205	0.193227220315277	-0.178420864698392	0.191799402783959	0.9650797812264	-0.0962524574618945	-0.979515802442875	0.176873562742533
95	9.141516	1.12685668945313	-9.6423486328125	0.708327026367188	0.979514609265596	-0.0593212336618719	0.192437318293776	-0.178159619848834	0.190145531658276	0.965455243212087	-0.0938630922705265	-0.979962074790257	0.175681677707692
96	9.141516	1.24481140136719	-9.57888061523438	0.341290283203125	0.980115342476402	-0.0553268053887482	0.190559334717146	-0.17697001060977	0.190651764474526	0.965574191891813	-0.0897526088041118	-0.980097367259103	0.177069534095029
97	9.141516	1.23942260742188	-9.16753601074219	0.449066162109375	0.980827332849011	-0.0509463384912694	0.188101604806099	-0.175448506583223	0.189293730195997	0.966118887739083	-0.0848266743071637	-0.980597957525314	0.176726005509003
98	9.141516	2.27646606445313	-10.09740234375	0.55803955078125	0.981542828649274	-0.0416634569719642	0.186648953600943	-0.175679160867303	0.189217085872275	0.966091986743998	-0.0755679030021477	-0.981050992949474	0.17840527253618
99	9.141516	2.40340209960938	-9.91478210449219	0.152083740234375	0.982419992213018	-0.0290511864819701	0.184409835594971	-0.175793189699468	0.18849993930619	0.966211429934903	-0.0628308312491663	-0.98164341868397	0.180079108169122
100	9.141516	2.12857360839844	-10.0465081787109	0.202379150390625	0.983920708171445	-0.0153713217408134	0.177943144007698	-0.171898930427546	0.188957466230337	0.966822545079332	-0.0484850260314409	-0.981864959362413	0.183276850221131
101	9.141516	3.77874206542969	-10.4614453125	0.0281414794921875	0.985818061230873	0.00438829664876211	0.167760224736156	-0.165557253060487	0.188950381499466	0.967930033261843	-0.0274507943431336	-0.981976830777452	0.186997213097421
102	9.141516	4.76189758300781	-9.83095642089844	1.0873388671875	0.987137150109519	0.0276978713910589	0.157458168394221	-0.159848198208364	0.189263127453276	0.968828169551311	-0.0029665473530877	-0.981535682747708	0.19125611909111
103	9.141516	6.13903381347656	-9.44176574707031	1.42324035644531	0.986284346322492	0.0511144744626887	0.156941067600607	-0.163866997203817	0.189353634067937	0.968138837405395	0.0197685463962186	-0.98057764188547	0.195132500644335
104	9.141516	5.76780578613281	-9.93274475097656	1.36695739746094	0.983788210991208	0.0753710556305865	0.16272664160441	-0.174360931107431	0.189791806851306	0.966218058077713	0.0419406916737066	-0.978927103529802	0.199856709561335
105	9.141516	6.16537902832031	-8.83343078613281	1.16338073730469	0.97960470088815	0.10025161276283	0.17413857739252	-0.190548634877697	0.188470536076528	0.963415836893536	0.0637640003770566	-0.976948550932688	0.203729431075721
106	9.141516	5.72349792480469	-8.56219482421875	1.21846618652344	0.975561433600207	0.12483570567518	0.180820175479646	-0.202343226075592	0.189599648727832	0.960785715996863	0.0856569211052555	-0.973893228126607	0.210225764538758
107	9.141516	7.08865905761719	-6.92819274902344	2.35370544433594	0.971042739669484	0.149052051535041	0.186706945956431	-0.213528466081625	0.190959064893203	0.958091973511908	0.1071521904023	-0.970215502591207	0.217256269469216
108	9.141516	6.95274169921875	-6.57313110351563	2.57823852539063	0.965908475373751	0.171197264173065	0.194196585811426	-0.226190762779315	0.193190453393192	0.954733045176004	0.125930758889432	-0.966110213928717	0.225327536062819
109	9.141516	6.23902587890625	-5.38400390625	3.10095153808594	0.96126892499879	0.19067016524505	0.199014928879965	-0.235939677401645	0.196056294758429	0.95178484854152	0.142458844791328	-0.961876716305692	0.233449480979716
110	9.141516	6.99525329589844	-4.28648620605469	3.27219543457031	0.956895427187323	0.209369400633208	0.201284861592919	-0.243340125917544	0.199630321067309	0.949175072380747	0.158545654454556	-0.95724196992665	0.241973317670611
111	9.141516	6.91921142578125	-3.53145629882813	3.36440368652344	0.953616873861812	0.225131991514429	0.199826035047417	-0.246529454423292	0.203167209662786	0.947600291800077	0.172737042894044	-0.95291063133674	0.249245346391134
112	9.141516	7.37845642089844	-2.59919494628906	3.9613623046875	0.950832315842987	0.23948319864991	0.196381528441631	-0.247624680969618	0.207022605657228	0.946479613156875	0.186010549494802	-0.94857231580481	0.256145734232179
113	9.141516	7.47784973144531	-2.193837890625	4.09967468261719	0.947501758052845	0.250374704031431	0.198879174545608	-0.253857575125303	0.210854808692085	0.943979121168962	0.194413862772875	-0.94490886186584	0.263344817167781
114	9.141516	7.1611083984375	-1.52023864746094	4.03261413574219	0.944675726984412	0.2588214075287	0.201492555324845	-0.259636700005202	0.214656564680881	0.941547313335773	0.200440901157627	-0.941771754855849	0.269980382433341
115	9.141516	7.24194030761719	-1.22385498046875	3.9901025390625	0.942709286975269	0.266015979133335	0.20133231011518	-0.262073050027669	0.217061676029549	0.940320129130733	0.206438651176994	-0.939212291042327	0.274341676847042
116	9.141516	6.54019958496094	-0.817899169921875	3.73742797851563	0.941403646435808	0.270453970115559	0.201528718861848	-0.264009398932332	0.219037238678708	0.939319820586895	0.209900480592004	-0.93748458020425	0.277604845286437
117	9.141516	6.93717407226563	-1.00830322265625	4.26373352050781	0.941098707569836	0.272434701285841	0.200281192690877	-0.263605171396951	0.220164452759861	0.93916980751818	0.211767646781017	-0.936646650170835	0.279011678072056
118	9.141516	6.89466247558594	-0.75443115234375	3.85478393554688	0.941170833449739	0.272914223361004	0.199286951280772	-0.262770823295264	0.22023229660127	0.939387688847613	0.212482838573505	-0.936491090305183	0.278990109306326
119	9.141516	7.60298950195313	-1.03764221191406	4.35713928222656	0.942059818423532	0.272054029291952	0.196239403937732	-0.259391799292695	0.219871565042332	0.94041075565177	0.21269507039779	-0.936826077792377	0.277700750803144
120	9.141516	7.84728149414063	-1.49329467773438	4.37629943847656	0.943236562354046	0.269654650897022	0.193884390006334	-0.256060587061742	0.218661905747247	0.941604984443359	0.211513033149542	-0.937802399348918	0.275297832507438
121	9.141516	7.673642578125	-1.86212768554688	4.31163391113281	0.944635741302334	0.266316713570912	0.191673483630315	-0.252564229457451	0.217248682167596	0.942875559177884	0.209462708501432	-0.939083818500368	0.27248294548102
122	9.141516	7.87183044433594	-1.91481811523438	3.745810546875	0.946564359281641	0.262440748996897	0.187458707462959	-0.246777684835938	0.215147985105003	0.944887357716396	0.207645582675746	-0.94065732218019	0.268415935115717
123	9.141516	8.07301208496094	-2.711162109375	4.17571655273438	0.948496195510438	0.258018216772579	0.183797624891413	-0.241504835588657	0.213466097125329	0.946629621216965	0.205013125164029	-0.942262609462765	0.264784428014376
124	9.141516	8.00176025390625	-3.52127746582031	4.09967468261719	0.950442571181087	0.251932053556835	0.182178921056529	-0.23795486687104	0.212346757286456	0.947779687481386	0.200090979854341	-0.944160523989731	0.26177185624197
125	9.141516	8.37059326171875	-3.60989318847656	3.82664245605469	0.952768416072871	0.245769727288161	0.17840848209291	-0.2322942446565	0.21133649038869	0.949408379850135	0.195631616139773	-0.946009581864208	0.258445626365869
126	9.141516	6.95334045410156	-3.91226440429688	3.51648742675781	0.954964364550529	0.238762520280044	0.176169013586742	-0.22790438478617	0.210022989396376	0.950762817594508	0.190006983644922	-0.948094300602283	0.254979495904332
127	9.141516	7.56706420898438	-4.81099548339844	3.53624633789063	0.95742163823537	0.230885585093686	0.173307972218956	-0.222713044443334	0.208732158792439	0.952276107922817	0.183691879171295	-0.95032769741905	0.251265916997758
128	9.141516	7.10722045898438	-4.8331494140625	3.55840026855469	0.960270233673211	0.22262859004571	0.168278308808518	-0.215433835801737	0.208064966121779	0.954094980735405	0.177395999709538	-0.952441851646074	0.247760324749649
129	9.141516	6.44918884277344	-5.92288330078125	2.70457580566406	0.962680753732854	0.211927557835641	0.168322537475424	-0.212263739913953	0.205399763869129	0.955382144338195	0.167898395198067	-0.955456774130744	0.242718935515107
130	9.141516	6.38332580566406	-6.12466369628906	2.91533752441406	0.965533218367082	0.200655585600233	0.165779794296932	-0.206629278662589	0.203615030510248	0.956998046262211	0.15827174551727	-0.95826836289097	0.238058394628667
131	9.141516	6.31506774902344	-6.52044067382813	3.19076477050781	0.968472407930429	0.188938810885431	0.162367856482237	-0.200163607656298	0.202149460764103	0.958681451621339	0.148309558853947	-0.960956669810862	0.233594849041168
132	9.141516	5.46303955078125	-7.36408630371094	2.33035400390625	0.970954065411873	0.177497766886792	0.160445459924418	-0.195184560652125	0.199741363806267	0.960211630250254	0.138387825126319	-0.963637862651222	0.228584512865138
133	9.141516	5.83007629394531	-8.29994018554688	2.52554809570313	0.973163950749486	0.167487902778986	0.157796474562487	-0.189959119199832	0.19769367278917	0.961682247299987	0.129874778130616	-0.965849374468828	0.224204210138208
134	9.141516	4.90799377441406	-8.39514221191406	2.29083618164063	0.974652883575207	0.158007649235437	0.158383519728622	-0.187972921877582	0.194471240971785	0.962728994616709	0.121317505659078	-0.968098403685279	0.219243115291392
135	9.141516	4.17811157226563	-9.30345336914062	1.57352783203125	0.976777309258786	0.145790122490551	0.157007414797377	-0.183588636125369	0.191714976845679	0.964126848676401	0.110459498472482	-0.970562006178508	0.214028248976524
136	9.141516	3.93322082519531	-8.64721801757813	1.90463928222656	0.97828016758643	0.133054910221672	0.15894748998638	-0.182487368432647	0.189122299715292	0.964847716540246	0.0983172114616506	-0.972897294998965	0.209295435483202
137	9.141516	2.80995666503906	-9.54295532226562	0.853824462890625	0.980799859525089	0.117895083136548	0.155346016774789	-0.175557359510784	0.186900130022953	0.966565028810273	0.0849190736947115	-0.975278980994479	0.204008970766489
138	9.141516	3.79131591796875	-8.76337646484375	3.14945068359375	0.984265165752708	0.103419034142475	0.143271025901375	-0.160566976146062	0.185026890614168	0.969527356973986	0.0737585903953226	-0.977276600112113	0.198721204747266
139	9.141516	2.59081237792969	-11.1769573974609	0.85981201171875	0.987420917857785	0.0868663329429989	0.132114235334147	-0.146153294933257	0.182651084434513	0.972253976970549	0.06032532931566	-0.979332845132814	0.193049302218435
140	9.141516	2.31718139648438	-10.7973468017578	1.50766479492188	0.989120233467069	0.0697866066692504	0.129502869758325	-0.140267612573366	0.182058649398794	0.973231547496306	0.0443414096417619	-0.980808073839463	0.189866694505127
141	9.141516	0.865799560546875	-9.58307189941406	0.358055419921875	0.989772571130459	0.0565634782844988	0.130961178836172	-0.139193718219216	0.181949932760519	0.973406046198991	0.0312308540726968	-0.981679578524888	0.187962333623224
142	9.141516	0.772992553710938	-9.90999206542969	0.899928588867188	0.989839618020424	0.0457268874030164	0.134634996808457	-0.140726017382458	0.179601321491508	0.973621873906999	0.0203400744554552	-0.982676150665587	0.184211466212641
143	9.141516	0.55564453125	-11.1841424560547	0.304766235351562	0.989551053283586	0.0287164814798743	0.141294290885234	-0.144159588633793	0.179427234643943	0.973151519791735	0.00259344371069649	-0.983352038264753	0.181692165186823
144	9.141516	-1.43102416992188	-9.96747253417969	0.725092163085937	0.988602017005053	0.0142751707684317	0.149874185479268	-0.150016862050969	0.177302896895337	0.972655449711203	-0.0126883046118302	-0.984052794443496	0.177423517815491
145	9.141516	-2.91294250488281	-10.0716558837891	0.85023193359375	0.987584751662692	0.00210569623884292	0.157072990442945	-0.154892110885514	0.179624422783795	0.971464616301087	-0.0261685358545244	-0.983733008891609	0.177720496702807
146	9.141516	-3.25962158203125	-9.41182800292969	-0.842448120117188	0.987027346363559	-0.00841852717915817	0.160331362903975	-0.156208755635544	0.180357503258595	0.97111791028748	-0.0370923468293311	-0.983565096685756	0.176702740183148
147	9.141516	-2.94228149414063	-9.86748046875	0.0904119873046875	0.98748975707875	-0.0184825204093287	0.156596219953966	-0.150821333902383	0.179065496810922	0.972208040026292	-0.0460098348666688	-0.983663532053098	0.17403778556499
148	9.141516	-3.86675903320313	-10.0099841308594	-0.0137713623046875	0.988474228280411	-0.0290389014971863	0.148578067780153	-0.140871626107135	0.182992507201694	0.972969129657241	-0.0554426278541932	-0.982685343590651	0.176792620063019
149	9.141516	-4.58765991210938	-9.78006225585938	0.259260864257813	0.989977331485957	-0.0410913804264066	0.135116178152717	-0.124831040489404	0.192823151708204	0.973260727398187	-0.0660461541217741	-0.980372750855493	0.185761069403026
150	9.141516	-3.44164306640625	-8.90887390136719	1.62502075195313	0.990687907678714	-0.0520302539724285	0.125818608523293	-0.112815189091206	0.203660001345889	0.972520095916844	-0.0762246855650357	-0.977658149111108	0.19589369767084
151	9.141516	-3.17998718261719	-8.29395263671875	2.60158996582031	0.990015765134179	-0.06211852699596	0.126530918710164	-0.110719491428908	0.212840715119122	0.970793502350168	-0.0872351936061921	-0.975110310986113	0.203837931713057
152	9.141516	-4.22601196289063	-7.44012817382813	2.21359680175781	0.98723702969768	-0.069870956863619	0.143112181803869	-0.125218934389675	0.214692279952295	0.968621413865706	-0.0984035856258084	-0.974179282430009	0.203203001995877
153	9.141516	-4.9002099609375	-7.40120910644531	0.680185546875	0.984118937404977	-0.0726335658306246	0.161970003876114	-0.143127133559819	0.215035759744337	0.966061201824256	-0.104997812738408	-0.973901425784923	0.201224929306103
154	9.141516	-5.42831176757813	-7.577841796875	0.343086547851563	0.982882982940249	-0.0726771222211973	0.169289922181221	-0.150075251096729	0.217126669745142	0.964537935124191	-0.106857198422625	-0.973434150413386	0.202503071468654
155	9.141516	-5.81810119628906	-7.21499633789062	0.244890747070313	0.983364252800179	-0.0755673120745857	0.165179682953344	-0.14442749238076	0.226215530619503	0.963310559036463	-0.110160999266304	-0.971141655502615	0.211538268850556
156	9.141516	-4.16793273925781	-4.23978332519531	0.410745849609375	0.983348175991693	-0.0782045971996836	0.164043914092069	-0.142518479543918	0.228230022679411	0.963119691282577	-0.11276013374549	-0.970461280899239	0.213283976222098
157	9.141516	-4.73854614257813	-5.52411254882812	0.986149291992188	0.98239259971077	-0.078410287497603	0.169577730991009	-0.1479924490579	0.227397687226202	0.962490793133119	-0.114030763635786	-0.970640056178766	0.21178967464426
158	9.141516	-4.68825073242188	-4.72477478027344	0.177830200195313	0.981669375211616	-0.0765075680926377	0.174561822275624	-0.153536629642842	0.225208743739141	0.962136957559242	-0.112923607494415	-0.971302019851698	0.209333812611482
159	9.141516	-5.87378540039063	-6.14442260742188	-0.305963745117187	0.981542995551825	-0.0730834889281736	0.176726204987364	-0.156675782344245	0.222602333707975	0.962237444841232	-0.109663335303869	-0.972166140468721	0.207043348640285
160	9.141516	-5.66422119140625	-6.36296813964844	-0.278421020507813	0.983393639217799	-0.0679143257098251	0.168299122723065	-0.149558080052115	0.222057814366712	0.963495048129363	-0.10280725187018	-0.97266539541718	0.208213106025636
161	9.141516	-4.79902038574219	-6.92460021972656	1.75554931640625	0.985144499666245	-0.0596076417661518	0.161050438746444	-0.144066674807928	0.223536451719351	0.963989755112838	-0.0934617996142311	-0.972871206170581	0.211628231143836
162	9.141516	-3.82843872070313	-6.26656860351563	0.285606079101562	0.985885098931417	-0.0473939380219179	0.160575173497543	-0.146636202586348	0.218427871963738	0.964773076345131	-0.0807984888227925	-0.97470153349021	0.208395117063201
163	9.141516	-3.78532836914062	-7.44671447753906	1.47772705078125	0.986617938382032	-0.0341178706034264	0.1594396894386	-0.148481415091872	0.216019808516161	0.965033010679405	-0.0673670025687974	-0.975792710176772	0.208063148420777
164	9.141516	-4.061953125	-8.53824462890625	0.683179321289063	0.987426443901456	-0.0210998996625934	0.156664648591676	-0.14851438182093	0.21567671054268	0.965104675629455	-0.0541525278862589	-0.976236831288247	0.209831248768649
165	9.141516	-2.60817626953125	-9.25375671386719	1.87470153808594	0.987887958874251	-0.00430637184534786	0.155109109573861	-0.150610245911199	0.213907722755496	0.965173580229032	-0.037335432739349	-0.976844379267797	0.210668279897753
166	9.141516	-2.8117529296875	-8.55321350097656	1.92858947753906	0.987987261433358	0.0109605188775557	0.154146158795306	-0.153011284709221	0.20912646914341	0.965843500084379	-0.0216498960054424	-0.977827176411837	0.20829137061676
167	9.141516	-1.82859741210938	-9.43098815917969	0.722098388671875	0.988901440811188	0.0290608111914533	0.145703155815008	-0.148565317188737	0.203400500425728	0.967758535459736	-0.00151224672846759	-0.978664245632515	0.205460476565139
168	9.141516	-1.02327209472656	-10.5273083496094	2.29802124023437	0.989985991211816	0.0468249279392083	0.133173433265969	-0.139901424665119	0.199467349392043	0.96986615978865	0.0188501612997792	-0.978785064582618	0.204020755730812
169	9.141516	1.46934448242188	-10.5758074951172	2.43274108886719	0.9897130894167	0.066428946435887	0.126709098776172	-0.137486383096177	0.196683080667552	0.970779717671446	0.0395663379703354	-0.978214169215791	0.203792894981836
170	9.141516	1.1256591796875	-10.2536773681641	2.7446923828125	0.987376497418106	0.090163152448882	0.130223877560277	-0.145900797863317	0.197732034308294	0.969337402451361	0.0616490837661176	-0.976100736885688	0.208390839342843
171	9.141516	3.46918579101562	-10.6314916992188	2.33215026855469	0.985609568691514	0.114610482964228	0.124250614881509	-0.145571265303275	0.201859936440999	0.968535788072924	0.0859231332164404	-0.972685459567862	0.215639077913832
172	9.141516	3.20752990722656	-10.0027990722656	1.55736145019531	0.984262009810132	0.133783646377576	0.11545662391755	-0.141395361234513	0.204316967068564	0.968639214975971	0.105998338976989	-0.969719811558897	0.220017815652043
173	9.141516	3.53265380859375	-8.82624572753906	2.49022155761719	0.98262874863357	0.152406392178616	0.105891614313514	-0.136516429680809	0.207094651568593	0.968749229532023	0.125713988028497	-0.966376788274005	0.224303134840309
174	9.141516	5.58817932128906	-8.95797180175781	1.90463928222656	0.980492683649361	0.171802778160788	0.0954877098181266	-0.130157870028495	0.203481228012699	0.970388746181699	0.147285526036067	-0.963887542850658	0.221873338996825
175	9.141516	4.78704528808594	-8.65200805664062	2.02858154296875	0.97777373978327	0.189202759853321	0.0903373093141781	-0.129087163081271	0.203737325289877	0.970478029947797	0.165212039869582	-0.960569319699319	0.223632653998736
176	9.141516	6.40547973632813	-8.65440307617188	1.36695739746094	0.975314906045852	0.207135096982666	0.0765237586815609	-0.119385198445121	0.203095857011632	0.971853511212945	0.185763312946855	-0.956999020094949	0.222811281357826
177	9.141516	8.01074157714844	-6.53421203613281	2.03037780761719	0.97111349258994	0.228537490826357	0.0686236096147826	-0.11602787545907	0.200954858729298	0.972704825149718	0.208509272278774	-0.952569031640165	0.221666694236856
178	9.141516	7.92631713867188	-6.9359765625	2.02019897460938	0.965754693279614	0.2500669012972	0.0691694823170866	-0.12122829604525	0.199203748782252	0.972430751626594	0.229393924606479	-0.947514860752439	0.222697139646929
179	9.141516	8.68553833007813	-6.09712097167969	2.29622497558594	0.95921369753585	0.27215036051877	0.0764412436391848	-0.133053388498589	0.196077114286688	0.971519717279093	0.249411062843342	-0.942065786727503	0.224290381445228
180	9.141516	8.99030456542969	-6.34859802246094	1.99624877929688	0.952585429890083	0.291791423265727	0.086248269951854	-0.147082448131567	0.193445538465022	0.970023493065814	0.266360192620353	-0.936715852837209	0.227190798296739
181	9.141516	8.24305847167969	-4.40982971191406	2.40280334472656	0.945156248618244	0.312329250992234	0.0955515812141176	-0.161057140501303	0.191163312027575	0.968254711131421	0.284148311963016	-0.930541254920639	0.230982054929145
182	9.141516	8.13288757324219	-3.84580261230469	3.16322204589844	0.937153082384307	0.332377690585972	0.106156351568468	-0.177068700963628	0.190883531368714	0.965510306828085	0.300650586755865	-0.923627927389025	0.237740775699941
183	9.141516	8.05445068359375	-3.65899108886719	3.26980041503906	0.929128468470041	0.350595816689603	0.117485583789107	-0.193814631121245	0.191191180809596	0.962227530859499	0.314890739530162	-0.916803417151345	0.245591767894945
184	9.141516	8.27778625488281	-2.79139526367188	3.745810546875	0.921088458302681	0.366767990412201	0.130680117809049	-0.212640765807778	0.192702773083158	0.957940262209885	0.326159403817019	-0.910135639591735	0.255486126524847
185	9.141516	6.64318542480469	-1.70764892578125	4.29247375488281	0.913867641396116	0.380762050751958	0.140947489215893	-0.228703225558239	0.19592344401273	0.953576865651348	0.335470965402907	-0.903678186520707	0.26612960485126
186	9.141516	7.0078271484375	-1.43461669921875	4.52718566894531	0.907251662638591	0.393496452150294	0.14850913367414	-0.242313463892062	0.200417998187475	0.949271726756442	0.343771153321716	-0.897214114995778	0.27717905042806
187	9.141516	6.33422790527344	-0.843046875	5.09420654296875	0.902300174626186	0.401487389161545	0.157042259324687	-0.255699608944185	0.205119421928867	0.944745326917979	0.347090917275787	-0.892599517752398	0.287739458630268
188	9.141516	5.68278259277344	0.0161663818359375	4.46790893554688	0.898446399706014	0.408697862859808	0.160499606694616	-0.263525354288235	0.209527367387677	0.941622360589876	0.351209986336609	-0.888292935471973	0.295951357976313
189	9.141516	6.23243957519531	0.3784130859375	5.37562133789063	0.895703656758821	0.413795743874428	0.162751471945066	-0.269439530366669	0.213925641028914	0.938955887987374	0.353719237170762	-0.884877902572879	0.303106909841325
190	9.141516	5.70373901367187	0.368234252929688	4.67807189941406	0.893959181744491	0.417736487159309	0.162275101819472	-0.271094937768502	0.215742450459698	0.938063286663505	0.356853633988799	-0.882582246799382	0.306111191470589
191	9.141516	5.62410461425781	0.822689208984375	5.14270568847656	0.893984013052753	0.419530165279165	0.157438955874754	-0.267360340308245	0.21743614571914	0.938743826059626	0.359598432750138	-0.881314905669728	0.306550165891332
192	9.141516	6.49170043945313	0.399369506835938	5.49776733398437	0.894635432725676	0.419970038922454	0.152488061562918	-0.262877390645734	0.218795038153013	0.939693678156298	0.361279559342947	-0.880768924115227	0.306142421617573
193	9.141516	6.42284362792969	0.206570434570313	5.40196655273438	0.896239197649729	0.41870450665334	0.146430313474887	-0.256630245318174	0.220197543030966	0.941091897335781	0.361795823337009	-0.881021894251959	0.304801909548786
194	9.141516	7.16350341796875	-0.283211059570313	5.04271362304688	0.898788415940709	0.415695548246653	0.139199836705022	-0.248029642530834	0.220381747749998	0.943352098468373	0.361470164462874	-0.88239962399503	0.301181380195742
195	9.141516	7.32756225585937	-0.326321411132812	4.74513244628906	0.901548228822194	0.412454700873476	0.130736034951869	-0.237966128199324	0.220308196684783	0.945957937914431	0.361362578219422	-0.883937451520678	0.296768712740649
196	9.141516	7.424560546875	-1.35438354492188	5.18581604003906	0.905132461710285	0.405531259125352	0.127591632290237	-0.231976115621548	0.219619847614941	0.947604455622033	0.356261573200673	-0.887305764889307	0.292858619567163
197	9.141516	6.8545458984375	-1.82739990234375	3.52786376953125	0.910348970377305	0.396477593394206	0.118618169220905	-0.21872593099309	0.217632674121945	0.951207120592428	0.351317120624924	-0.891875292342416	0.284841611540419
198	9.141516	7.95864990234375	-2.30760131835938	3.34763854980469	0.91587164130729	0.38744722687147	0.10518451900683	-0.200942489466277	0.21557628255381	0.955588291225555	0.347564745876485	-0.896332255801323	0.275294814033841
199	9.141516	8.30892150878906	-3.11711791992188	3.24225769042969	0.922086313897793	0.375320916210848	0.0942923092146464	-0.184617616035184	0.212495270227809	0.95956349241741	0.340107579409613	-0.902208385011722	0.265229833244064
200	9.141516	7.7071728515625	-3.69671264648438	2.56446716308594	0.928398347801801	0.36274602230241	0.0805719002051301	-0.165502770377053	0.209529051269076	0.963694147368241	0.332694064865015	-0.908026926901433	0.254561896648994
201	9.141516	9.33758239746094	-5.06666381835938	2.77403137207031	0.934448757422315	0.34873820880392	0.0720220901677076	-0.151729384479807	0.206954747567871	0.966513283066766	0.322154797631932	-0.914085003803997	0.246302440473855
202	9.141516	8.40951232910156	-5.02115844726563	2.22617065429688	0.940207341189595	0.334001749782916	0.0667307029420645	-0.141266164331508	0.204123259963964	0.968698903455944	0.309925840142856	-0.92020461087936	0.239101333597516
203	9.141516	8.53944213867188	-6.66653686523438	2.10522216796875	0.945612403821334	0.319324021173163	0.0620431401610159	-0.13179232917871	0.201704754319187	0.970539012124029	0.297402023713506	-0.925930538208368	0.232818974107081
204	9.141516	8.08019714355469	-6.06239318847656	1.80704223632813	0.949897606307921	0.305737486186229	0.0649548079129461	-0.130301728591631	0.198456462941238	0.971409538682262	0.284105608984608	-0.931203319290357	0.228351442049544
205	9.141516	6.29231506347656	-7.85506530761719	1.89026916503906	0.954637898804413	0.290286969124806	0.06633217712867	-0.126907175979437	0.195117458752112	0.972534701681664	0.269371585085027	-0.936836513403727	0.223106020318432
206	9.141516	6.17555786132813	-8.91306518554688	0.599952392578125	0.959774163745147	0.274075241727299	0.0609615983995465	-0.116944072455987	0.192825548523953	0.974239391399181	0.255259943047697	-0.942178894747998	0.217120454510226
207	9.141516	6.56834106445313	-9.82916015625	1.23283630371094	0.964870804436165	0.257200313234237	0.053594119256843	-0.105530405308907	0.192602999527036	0.975585679542564	0.240598554239306	-0.946969948543985	0.212979464391657
208	9.141516	4.86548217773437	-9.54235656738281	0.173638916015625	0.968888420179174	0.242472842775813	0.0496200539995757	-0.098371501788144	0.193309122102153	0.976193951501463	0.227108513443794	-0.950704214689464	0.211147387606475
209	9.141516	4.09727966308594	-9.03341491699219	0.648451538085938	0.972607074396802	0.229596374424188	0.0363453392412446	-0.083045046005447	0.197156025095489	0.976848515432408	0.217115174889381	-0.953108077092947	0.210822186244567
210	9.141516	3.27878173828125	-9.78305603027344	-0.201780395507813	0.975557629778253	0.219132645162837	0.0163766542790634	-0.0625779246159982	0.205603309069626	0.976632624199281	0.210644995981847	-0.953786225064903	0.214290743020434
211	9.141516	4.31822021484375	-9.9010107421875	1.19451599121094	0.977221997312986	0.212179366089995	-0.0041333489167255	-0.0429387576967472	0.216759400767517	0.975280280363736	0.207830293882002	-0.952887862649407	0.220932772943187
212	9.141516	3.97453491210938	-10.0997973632813	1.41545654296875	0.977768056597984	0.208189186005317	-0.0250377779973632	-0.0241168290418851	0.230262480549429	0.972829670912739	0.208297878178263	-0.950597944917654	0.230164161121506
213	9.141516	4.06015686035156	-9.70761291503906	2.0453466796875	0.977592048571706	0.20697675147597	-0.0383980587768522	-0.0138748140199016	0.245362711750732	0.969332053126399	0.210050651285087	-0.9470785416378	0.24273639995668
214	9.141516	4.32420776367188	-9.02203857421875	1.93697204589844	0.977062534529637	0.207578800936537	-0.0475378272565499	-0.00828447054481592	0.260114363498055	0.965542275330187	0.212791379445493	-0.943001356999953	0.255867679729059
215	9.141516	3.93322082519531	-8.76517272949219	2.58482482910156	0.97636599326992	0.209794547342085	-0.0519200837015242	-0.00770267362754226	0.273859326707385	0.961738913632159	0.215986379211818	-0.938609246215329	0.269002912463901
216	9.141516	4.21164184570313	-8.27838500976562	3.14106811523438	0.975563915278025	0.213668132854453	-0.0511954705994785	-0.0128668768882998	0.288165679647302	0.957494117241746	0.219338757830329	-0.933437984054592	0.283873280245866
217	9.141516	4.45413757324219	-7.587421875	2.77043884277344	0.975069598060644	0.216910367911451	-0.0467885801277808	-0.0208623851811589	0.299533506870213	0.953857661890172	0.220916363862906	-0.92910148560561	0.296591283794789
218	9.141516	3.53744384765625	-7.45150451660156	3.63623840332031	0.973701827821122	0.223508935715441	-0.0441418866062224	-0.0281664621453946	0.310365040389423	0.950200080043295	0.226078307026609	-0.923968233955812	0.308498463095944
219	9.141516	3.62665832519531	-7.88200927734375	4.22900573730469	0.972588102257339	0.22873122055112	-0.0418857027237531	-0.0346261268833375	0.320575152124773	0.946589986835503	0.229942198572873	-0.919191819255031	0.319707655100875
220	9.141516	3.13088928222656	-7.37606140136719	4.7469287109375	0.971362004013021	0.234863772075178	-0.0359842427518789	-0.0454012720237706	0.332121807827184	0.942143210591801	0.233226460030656	-0.913528386713966	0.333273618831955
221	9.141516	3.8176611328125	-7.50239868164063	5.776787109375	0.970365364460969	0.240066973756115	-0.0275482770080326	-0.058744695118527	0.344947666550882	0.936781814584663	0.23439308916852	-0.907402311795977	0.348827929353938
222	9.141516	2.596201171875	-6.753955078125	5.00259704589844	0.969634190526485	0.243521208495356	-0.0225157183987107	-0.0677049367537186	0.355765180672072	0.932119722868551	0.235001229999384	-0.902290727667269	0.36144967099784
223	9.141516	2.62853393554688	-6.60426635742188	5.5420751953125	0.96839705489605	0.248098718026368	-0.0255767508165308	-0.0697788606409398	0.367954213926091	0.927221983702762	0.239453658724001	-0.896134321721753	0.373637822972975
224	9.141516	4.12182861328125	-5.62889465332031	7.13955322265625	0.966978142589489	0.253318283680211	-0.0279842617821993	-0.0727671016609161	0.379652970552775	0.922262745027861	0.244250323786996	-0.889771582544513	0.38554936159483
225	9.141516	3.57875793457031	-5.34747985839844	6.19112548828125	0.965626384867712	0.258028339760599	-0.0314175226219538	-0.0743214444503161	0.389893251304869	0.917855966631877	0.249082331252401	-0.883970943225685	0.395668249661964
226	9.141516	3.88651794433594	-4.50862426757813	7.80896118164063	0.96385264923095	0.264368383767524	-0.0331274543940219	-0.0791751259453573	0.402918550105119	0.911804771545273	0.254400019658053	-0.876222574261435	0.409285512023876
227	9.141516	4.30864013671875	-3.01173706054688	7.75986328125	0.961898472100549	0.271875029802711	-0.0289015145001803	-0.0904166799859884	0.416082176264898	0.904820670948104	0.258023551930711	-0.867732441922302	0.42481084718333
228	9.141516	4.30205383300781	-2.60757751464844	7.19882995605469	0.959716948198611	0.279879279371297	-0.0247177733412287	-0.101800714826034	0.4283729240741	0.897849236999795	0.261877822278354	-0.85916484268085	0.439608666088303
229	9.141516	3.64881225585937	-3.05245239257813	7.24373657226563	0.957312568701418	0.288072845516744	-0.0238050726144599	-0.110151951735752	0.439710711498168	0.891359095832078	0.267243696530148	-0.850687090456685	0.452672376885581
230	9.141516	4.20924682617188	-1.8537451171875	7.85626281738281	0.954682731798175	0.296711761738318	-0.0233026190055607	-0.117923590404492	0.448985542342871	0.885723438547943	0.273267100896702	-0.842836943431659	0.463628060361201
231	9.141516	3.17938842773438	-2.07229064941406	7.73531433105469	0.95208075340764	0.304888511619957	-0.0241916198901366	-0.124184030501412	0.45764912161217	0.880417859914276	0.279500564505988	-0.835224686518411	0.473581204727402
232	9.141516	3.94878845214844	-1.61603942871094	8.53824462890625	0.949345463681488	0.313802948870026	-0.0164590360549385	-0.138830800645229	0.465840450181155	0.87390999752104	0.28190281903448	-0.827357470659143	0.485809032815281
233	9.141516	2.20940551757813	-1.46335693359375	7.93829223632813	0.947375258772314	0.320103235565629	-0.00374668473542111	-0.156453622210872	0.473186440433099	0.866958393861753	0.279289067389307	-0.820748750331469	0.49836643713852
234	9.141516	1.71782775878906	-1.09153015136719	6.80365173339844	0.94517850897586	0.326551229629722	0.00137134878425821	-0.166667632418819	0.478787383916858	0.861965510508371	0.280819312858067	-0.81493983546601	0.506965065952828
235	9.141516	1.906435546875	-0.297581176757813	7.8556640625	0.943060773395102	0.332511510001092	0.00851313104716525	-0.178109886448819	0.483204320405344	0.857199191023183	0.280915015676666	-0.809907204844113	0.514914627398538
236	9.141516	1.74058044433594	-0.626297607421875	7.4197705078125	0.941481134651188	0.336670319881653	0.0163208090086913	-0.18804869904007	0.48445115332183	0.854368051155055	0.279733730331631	-0.807440509112551	0.519412037171662
237	9.141516	1.10889404296875	-0.593366088867188	7.26948303222656	0.940440335658777	0.339416059705928	0.0192019134387443	-0.192320539748996	0.484598056570471	0.853333190236251	0.280329779111427	-0.806201874211308	0.521012238782846
238	9.141516	1.75734558105469	-0.62510009765625	8.24245971679688	0.939513848712031	0.341854452655714	0.021195784433916	-0.195543040925594	0.484543039138743	0.85263178592389	0.281205702687336	-0.805204058870578	0.522082154794117
239	9.141516	1.95313842773438	-1.01309326171875	7.83590515136719	0.939301561973589	0.342423736118802	0.0214140284957733	-0.195746384158178	0.483600064629858	0.853120349410912	0.28177283183972	-0.805528995401431	0.521274504272544
240	9.141516	2.11659851074219	-1.07536376953125	7.96703247070313	0.939157560932827	0.342590989520326	0.024788901592999	-0.197669894534967	0.480037168884218	0.854687620879207	0.280908683627328	-0.807586360947923	0.518550461453515
241	9.141516	2.04295166015625	-1.05500610351563	7.47365844726563	0.938930593924723	0.342769572376783	0.0303044558572681	-0.200535746516151	0.473490159097564	0.857666883823186	0.279633249384578	-0.811366803295773	0.513311948378587
242	9.141516	1.27235412597656	-2.41717346191406	6.49349670410156	0.938502294026321	0.343756668762485	0.0323233164859767	-0.200347592172044	0.465937869342485	0.861836843157364	0.281201505006993	-0.815311753008569	0.506154580131305
243	9.141516	2.30460754394531	-2.42735229492188	7.29283447265625	0.938763665136092	0.342645902586173	0.0362845209580966	-0.199857192331036	0.455704608342918	0.867404411222691	0.280677543978507	-0.821539466718389	0.496279176402011
244	9.141516	1.57652160644531	-3.99189880371094	4.83015563964844	0.9399975127846	0.339614644868428	0.032658367222782	-0.190173959148667	0.442075083050714	0.876586268548296	0.283264083887258	-0.830199683170619	0.480135340131214
245	9.141516	3.66198486328125	-4.45114379882813	7.02040100097656	0.941659769289393	0.335820874422807	0.0223879254007468	-0.173659086956148	0.427814614524676	0.887027156921737	0.288304353798906	-0.839165654624285	0.461174157645017
246	9.141516	5.38280639648438	-5.59117309570312	6.39829467773438	0.942704153770258	0.333234847979681	0.0162300510245902	-0.161191832213102	0.412331931361556	0.896660231976099	0.292106267806915	-0.847901476866038	0.442421760129751
247	9.141516	4.09668090820313	-6.59049499511719	6.12286743164063	0.944846462145507	0.327062072169521	0.0171919725249263	-0.153846245884564	0.396879752427988	0.904885514714389	0.28913058571923	-0.857622797656918	0.425307701953276
248	9.141516	4.50383422851563	-6.86352722167969	4.84512451171875	0.94579103878103	0.324322054385913	0.0171614684803539	-0.147158456520222	0.380841249374575	0.912855044051025	0.289523228146011	-0.865895575582711	0.407922973795543
249	9.141516	4.64274536132813	-8.43346252441406	4.25594970703125	0.947760773320166	0.318628290852595	0.0150176171184231	-0.137145646600828	0.364529724533667	0.921036997926712	0.287994076630062	-0.874982338221614	0.389185456596511
250	9.141516	5.86839660644531	-7.73711059570313	4.75591003417969	0.948190000715347	0.31636136280674	0.0291755148453859	-0.144330464525466	0.347126273053602	0.926645599766048	0.283027277048157	-0.882847007515446	0.374802243546817
251	9.141516	3.76796447753906	-8.8472021484375	2.49980163574219	0.947953245921411	0.316083433306705	0.0384175316243464	-0.147916182303056	0.330306317974659	0.932211638695266	0.281967101910756	-0.889375623398275	0.359868801016398
252	9.141516	4.18589538574219	-8.54004089355469	2.35490295410156	0.946328145267645	0.318545678172111	0.0546963654383803	-0.159798608295157	0.314031412927087	0.93586787341053	0.280940289494458	-0.894378511936019	0.348079920601408
253	9.141516	3.77395202636719	-10.1728454589844	1.10949279785156	0.94405846723405	0.321320996721969	0.0742053064766754	-0.175125409732441	0.297809838826624	0.93842441931362	0.279436399400189	-0.898922753613268	0.337421371176453
254	9.141516	3.85538269042969	-9.34776123046875	0.827479248046875	0.941643529298421	0.325550562752936	0.0855820940481176	-0.183282271149604	0.282616214602906	0.941560239350498	0.282338578328675	-0.902299787395947	0.32579137627103
255	9.141516	4.63915283203125	-9.38548278808594	0.774788818359375	0.937939775325578	0.332004601500762	0.10020939299549	-0.196043727179804	0.269239964814937	0.942908637345052	0.286069632949138	-0.904036938365226	0.317618291626243
256	9.141516	5.22832763671875	-9.58426940917969	0.204774169921875	0.932610637720011	0.340922717238936	0.118360040900196	-0.214149804262438	0.258816512397994	0.941888461679247	0.290477640698618	-0.903761978499073	0.314383565845299
257	9.141516	4.28768371582031	-9.75910583496094	-0.38559814453125	0.926508603375424	0.351453056275987	0.13439701300843	-0.231414431907636	0.250589779159337	0.940027724743127	0.296697099035678	-0.902045182801362	0.313504895669383
258	9.141516	4.905	-10.2207458496094	-0.555045776367188	0.920863854825934	0.364117018533208	0.139386361203704	-0.239947737947451	0.247492156409219	0.938708003358774	0.307302528347918	-0.897867712600471	0.315275636135389
259	9.141516	5.3121533203125	-9.82676513671875	-0.0604742431640625	0.915781801878285	0.377937964788161	0.136038913992815	-0.241704633891292	0.247996631401745	0.938123947444507	0.320815463006442	-0.891998074877503	0.318460159377577
260	9.141516	5.65044982910156	-9.28728698730469	-0.0293389892578125	0.910383033179938	0.393863212306802	0.126785262903311	-0.238701704151201	0.249649616961703	0.938454349015543	0.337970752186351	-0.884616775073953	0.321292595501905
261	9.141516	6.59768005371094	-9.06574768066406	0.581390991210938	0.904586587972635	0.410188935742306	0.116052323779501	-0.234724142899505	0.252019444761086	0.938824145515233	0.355847834895929	-0.876488012728588	0.324254656008162
262	9.141516	7.4485107421875	-8.59632385253906	0.877175903320313	0.895318977989666	0.429646362023611	0.117507154043563	-0.243954449318401	0.252260933351942	0.936403037245269	0.37267969398573	-0.867045803348522	0.330668142684504
263	9.141516	7.65867370605469	-7.83410888671875	0.693358154296875	0.884137902244438	0.451185297553689	0.121375438562313	-0.256387359423258	0.251335835566778	0.93332514146353	0.390596584397219	-0.85630726087739	0.337893745467251
264	9.141516	8.01553161621094	-7.54371276855469	1.10590026855469	0.873353119766504	0.471434228406723	0.122491209809818	-0.266793672026212	0.252591880954269	0.93006369579871	0.407523575711744	-0.844953909963462	0.346377576174573
265	9.141516	8.16941162109375	-6.51205810546875	2.19683166503906	0.8616569075788	0.491223512802862	0.127463069519593	-0.281305337258482	0.253264822362173	0.925593991436715	0.422391620243148	-0.833400498094088	0.35641117957339
266	9.141516	7.85626281738281	-5.89234680175781	1.94176208496094	0.850266942393346	0.509198179776781	0.133279182114404	-0.296993028896082	0.25507234001595	0.920181092038909	0.43455870427389	-0.821982551561042	0.368107888354756
267	9.141516	7.38025268554688	-4.26133850097656	2.52255432128906	0.838719120471752	0.526374560254903	0.139570982913886	-0.313093245818709	0.256406543016646	0.91445519525068	0.445559038038503	-0.81066978913409	0.379857389828727
268	9.141516	6.72461608886719	-3.60989318847656	2.76325378417969	0.829500194136688	0.540393613966548	0.141082138881474	-0.322910679882727	0.257931392209776	0.910604244296282	0.455695205970913	-0.800903326810984	0.388453009202177
269	9.141516	6.84855834960937	-2.51417175292969	3.23627014160156	0.821951682649567	0.552361037316639	0.138898221169437	-0.328097736565946	0.259853719785895	0.908200374132128	0.46556128130446	-0.792069017679596	0.394815608331573
270	9.141516	7.80896118164063	-2.42795104980469	3.86017272949219	0.815165585161943	0.562494465186574	0.138221002029567	-0.334102984519374	0.261678063933784	0.905483178524656	0.473159872033581	-0.784298774377683	0.401242031705091
271	9.141516	7.21080505371094	-1.61364440917969	3.95537475585938	0.809074249993606	0.57076026938847	0.140112714929394	-0.341638991277288	0.262773751453296	0.902348466606	0.47820671015401	-0.77793487544573	0.407597438570112
272	9.141516	7.36408630371094	-1.83578247070313	3.77754455566406	0.804458590530272	0.577146644685828	0.140528027987082	-0.346748725243044	0.264182193354399	0.899985050018489	0.482298349224183	-0.77272861940163	0.412648498232187
273	9.141516	7.39162902832031	-0.504151611328125	4.07871826171875	0.800338276149455	0.583293095354701	0.138664374089565	-0.348988345507361	0.265172693288768	0.898827334605494	0.487509772650923	-0.767758170028501	0.415790348522345
274	9.141516	7.43833190917969	-0.70892578125	4.64334411621094	0.796564941047858	0.588612598036848	0.137911218273696	-0.352256988157591	0.266503898103747	0.897157002196188	0.491324036647472	-0.763224004947315	0.41963056285811
275	9.141516	6.888076171875	-0.565823364257813	4.36671936035156	0.795229771431172	0.590471275848765	0.137670922954191	-0.353762009600935	0.267465385861543	0.896278253629443	0.492404357406222	-0.761449893140362	0.421582742820312
276	9.141516	6.87909484863281	-0.793948974609375	4.17751281738281	0.795461209688503	0.590589342269323	0.135814920678081	-0.352086024485861	0.267994452857797	0.896780020182872	0.493231076923025	-0.761172255166555	0.421117445283397
277	9.141516	7.17248474121094	-1.25858276367188	4.07093444824219	0.797451548938506	0.588776600110432	0.131958865780131	-0.34671367971242	0.268148315650893	0.898824846738152	0.493822489763124	-0.762521210181061	0.417972191213912
278	9.141516	7.36588256835938	-1.38731506347656	4.28528869628906	0.800333444832302	0.58625621685244	0.125578761280422	-0.338145850933687	0.26840945652423	0.902005403057377	0.495099748110614	-0.764369028578626	0.413057172278335
279	9.141516	7.6496923828125	-1.74177795410156	4.00746643066406	0.804057137595012	0.582520636332169	0.119003477804989	-0.328321039178851	0.268157246243988	0.905702482341393	0.49567874143949	-0.767307890962948	0.406867528504005
280	9.141516	7.38683898925781	-2.49381408691406	3.33207092285156	0.810451017683322	0.575023197134962	0.111881502907116	-0.316593967896101	0.269245589248587	0.90954663000969	0.492886809955258	-0.772564000861332	0.400259237426522
281	9.141516	8.7514013671875	-2.06750061035156	4.01285522460938	0.81528590952657	0.569226722326703	0.106253584958967	-0.306748085457425	0.268920620229776	0.913010028468163	0.49113592598754	-0.776957295225697	0.393856399719404
282	9.141516	7.6688525390625	-3.95956604003906	3.33686096191406	0.82101392806197	0.560697407400494	0.107492079999499	-0.302113451114755	0.266934545720124	0.915135733624649	0.484420883719712	-0.783813986629197	0.388551208697976
283	9.141516	8.43106750488281	-3.91944946289063	2.91773254394531	0.826828047242067	0.553202512467517	0.101599018171915	-0.291097926755514	0.266323812366489	0.918876283296735	0.481266430714331	-0.789327946525528	0.381240102168282
284	9.141516	7.44611572265625	-4.81937805175781	2.61296630859375	0.83349044756603	0.543946188244828	0.0970371996200509	-0.280556476869105	0.265340273308252	0.922432980030255	0.476006026330523	-0.79606349222573	0.373766209337336
285	9.141516	8.59512634277344	-5.72649169921875	2.8309130859375	0.840075971669046	0.535071508570287	0.089279575159308	-0.267804366145158	0.265944549127822	0.926042287513259	0.471755427417534	-0.801855334524574	0.36670811171364
286	9.141516	7.46347961425781	-6.03485046386719	2.48543151855469	0.846025850527736	0.525953420584827	0.0872539948308403	-0.260777338303937	0.265493898081736	0.928174644077545	0.465011225741846	-0.808013607222356	0.361771434026488
287	9.141516	6.90184753417969	-6.5575634765625	2.3135888671875	0.853205049744135	0.514746962819579	0.0841231677906117	-0.252816708859732	0.267075968916558	0.929921576558269	0.456207030647756	-0.814681527405219	0.358007198380504
288	9.141516	7.14374450683594	-7.76824584960938	1.23642883300781	0.860546073258499	0.502909915061478	0.0808830831029257	-0.243326281104879	0.266365019204576	0.93265320321533	0.447496119226801	-0.822272031554645	0.351590570692603
289	9.141516	6.67192565917969	-7.73770935058594	1.94894714355469	0.867058935061416	0.49146499462918	0.0816759584229176	-0.237881347264301	0.264353521475252	0.934628097323933	0.437745665602623	-0.829806829772914	0.346120437865699
290	9.141516	5.70793029785156	-8.37238952636719	1.46455444335938	0.873482911921146	0.480061895500619	0.0810443031317366	-0.231546695739879	0.263196403638266	0.936543528515267	0.428268292398234	-0.836820309027115	0.341054306710917
291	9.141516	5.81750244140625	-9.0100634765625	2.62673767089844	0.879198352638531	0.468438640160688	0.0870373317726375	-0.233022155509385	0.263419256776937	0.936114827465545	0.415585047564821	-0.843312240847654	0.340754358265678
292	9.141516	5.75463317871094	-9.47769104003906	0.793350219726562	0.884399298303887	0.458634164006469	0.0865597179158932	-0.228904221301416	0.26459815521569	0.936798096564487	0.406744070184169	-0.848317464079657	0.338993718979386
293	9.141516	3.34883605957031	-8.68733459472656	1.2645703125	0.890028397508823	0.447734033749212	0.085928380937477	-0.224292895957565	0.265930416521165	0.93753597818529	0.396915795164221	-0.853706769676532	0.337109185513559
294	9.141516	2.97700927734375	-9.85610412597656	1.01668579101563	0.894616240095782	0.43823062908497	0.0872679705772829	-0.223417700639061	0.26955769061657	0.936708696698508	0.386970688809942	-0.857492021631253	0.339059167168071
295	9.141516	3.4152978515625	-10.1692529296875	0.300574951171875	0.898697992685477	0.429746718753213	0.0875195730333603	-0.220669244539854	0.270635818342847	0.937049272100517	0.379007918726383	-0.861437177947844	0.338051750464261
296	9.141516	1.68429748535156	-10.3375030517578	1.23523132324219	0.903171011991578	0.420593181868871	0.0859272859080757	-0.217104397820174	0.274845231341828	0.93665670298984	0.370334718255323	-0.864616373991423	0.33954487520897
297	9.141516	1.62921203613281	-10.7793841552734	0.731678466796875	0.909314249471419	0.409634859180226	0.073122348516898	-0.203107401836476	0.283565768809872	0.937196797945075	0.363173483376012	-0.867058093153891	0.341050266190881
298	9.141516	1.05560485839844	-10.7440576171875	2.04295166015625	0.914501649183249	0.400957191724559	0.0540376169485075	-0.185340192648013	0.296457157231953	0.936889623656462	0.35963279415303	-0.866802448271984	0.345424042358635
299	9.141516	1.62082946777344	-9.6615087890625	2.63512023925781	0.918575001021835	0.393914499106757	0.032424294768118	-0.16689149806608	0.312193932027771	0.935244447552778	0.358283680023242	-0.864503508494045	0.352514522297296
300	9.141516	1.79386962890625	-9.69204528808594	3.22309753417969	0.920327421018183	0.390820546469442	0.0160230639812404	-0.156519362855917	0.33042109656742	0.930765055206931	0.358467749139582	-0.859116522597785	0.365266578578292
301	9.141516	1.62202697753906	-9.11484558105469	4.28888122558594	0.920369147037846	0.39100897992856	0.00571058631451396	-0.153674702067994	0.348218850066299	0.92473116006914	0.359589653807144	-0.851971601682669	0.380578074514451
302	9.141516	1.42683288574219	-8.47717163085938	4.43018737792969	0.919237487201541	0.393692817789907	-0.00289954203963019	-0.154240536889239	0.366894386548199	0.917386704666871	0.362232382461198	-0.842849022269151	0.397986465544269
303	9.141516	1.45677062988281	-7.29582824707031	5.31993713378906	0.917906427018736	0.396592958194624	-0.0127207212112617	-0.153904328842662	0.385391213668447	0.90982804418783	0.365733849679227	-0.833179235181482	0.414790444997488
304	9.141516	1.58131164550781	-7.48862731933594	5.65284484863281	0.915661145611342	0.401457377467014	-0.0199158352833101	-0.157184677386716	0.403235673056867	0.901495407181429	0.36994275721057	-0.822333853159216	0.432330186704281
305	9.141516	1.82859741210938	-6.15939147949219	6.58989624023438	0.914348653647415	0.404165470686958	-0.0248356976457194	-0.161107778446406	0.419375174231154	0.893402902929386	0.371498079802875	-0.812880517384307	0.448569327038527
306	9.141516	1.96092224121094	-6.17555786132813	6.8162255859375	0.912662729172477	0.407871765986917	-0.0262176522625741	-0.168629207656641	0.434208255007892	0.884888344147495	0.372304892668013	-0.803183549254911	0.46506478376861
307	9.141516	1.04303100585938	-4.17930908203125	6.7395849609375	0.910467032896554	0.412774352078594	-0.0258285941282727	-0.177035554089336	0.445409201169807	0.877649734291281	0.373775593902047	-0.794498570029784	0.478606129947999
308	9.141516	0.858614501953125	-4.55233337402344	6.24680969238281	0.907015707409682	0.419922657169538	-0.0314240116437776	-0.180466003501661	0.455052355523931	0.871985880225282	0.380466198357032	-0.785233924208447	0.488521397873165
309	9.141516	1.54059631347656	-3.81586486816406	8.62027404785156	0.903317944306872	0.427168643128776	-0.0392892074331789	-0.183788113684615	0.468147191332785	0.864326406235211	0.387606270281401	-0.77354066316823	0.501394277653621
310	9.141516	2.29742248535156	-3.21651123046875	8.22988586425781	0.899480245706229	0.434591405929203	-0.0454488446139199	-0.188837679914494	0.480408758122527	0.85647402515411	0.394050273732645	-0.761799012214935	0.514185420601924
311	9.141516	2.02199523925781	-2.9458740234375	7.95026733398438	0.896142483022053	0.440752046054318	-0.0516360728754864	-0.192598452243193	0.49112016665825	0.849533294282866	0.399793054362624	-0.751357848032817	0.525001807504411
312	9.141516	2.21539306640625	-2.29023742675781	7.8556640625	0.892483978067389	0.447863022666269	-0.0537685951205972	-0.200002566656737	0.499736879107524	0.842770446201449	0.404315869369144	-0.741405263393851	0.535580911896763
313	9.141516	2.13575866699219	-1.58789794921875	7.84788024902344	0.88926952281271	0.454206283459108	-0.0538179139573373	-0.20860344125411	0.507474965388587	0.836034547013935	0.407043388465404	-0.732233440625405	0.546031014079315
314	9.141516	2.02558776855469	-1.24720642089844	7.93110717773438	0.886468897252805	0.459708748090503	-0.0532987910975447	-0.216315124402875	0.513407165204854	0.830434133252533	0.40912181701538	-0.724624695718673	0.554561438613123
315	9.141516	1.77351196289063	-0.874780883789062	7.7454931640625	0.883419900641043	0.465283942441294	-0.0554989374462025	-0.221583981627977	0.519173351027838	0.82544507428927	0.412879907766488	-0.716916929977813	0.561747538734194
316	9.141516	2.03876037597656	-0.444874877929687	8.83043701171875	0.880163657187921	0.470967887251592	-0.059170818342792	-0.225134256964264	0.523945333972173	0.821459587167827	0.417883360409018	-0.709697496252143	0.56718864666591
317	9.141516	2.32017517089844	-0.824485473632813	8.15444274902344	0.876998347825745	0.476274370501219	-0.0635344151982313	-0.227990540774666	0.528869801020216	0.817506603573397	0.422958876521333	-0.702466694991659	0.572403992997347
318	9.141516	3.17878967285156	-0.541873168945313	9.26692932128906	0.87431256463802	0.481814501366748	-0.0585860528522089	-0.239153159833866	0.532686174701559	0.81181968775295	0.422354478439103	-0.695773113561118	0.580961676006173
319	9.141516	1.68369873046875	-0.74006103515625	7.89458312988281	0.872527938916865	0.485837296969852	-0.0515472276899185	-0.250386682071982	0.535268610781043	0.806718057163417	0.419525333264242	-0.690977304392525	0.588684006546778
320	9.141516	1.57233032226563	0.196990356445313	7.34851867675781	0.870708372353365	0.489571804335618	-0.0467587287393612	-0.258763241702402	0.536905056015233	0.802978546144879	0.418220653551948	-0.687060702721998	0.594170914567295
321	9.141516	1.56933654785156	-0.133522338867188	7.34612365722656	0.8693367203479	0.492050876571458	-0.0462558268763809	-0.261670893342923	0.537658980981513	0.801530513297553	0.419263652409643	-0.684696104147805	0.596162087634684
322	9.141516	1.9974462890625	0.0616717529296875	8.45202392578125	0.86824234871578	0.494028408363404	-0.0457291551029276	-0.263885924844344	0.537884263242723	0.800652695008816	0.420142169468326	-0.683093296033387	0.597381039495474
323	9.141516	2.05432800292969	-0.267044677734375	7.60957580566406	0.867211554084529	0.495968538550146	-0.0442643110273751	-0.265423726266984	0.535644461885803	0.801645343019978	0.421300802274153	-0.683447305371454	0.596158883841928
324	9.141516	2.45010498046875	-0.508941650390625	7.91913208007813	0.866429940608336	0.497669655827859	-0.0402997727737659	-0.268121800698035	0.531840155080504	0.803278749522474	0.421200496210391	-0.685179511596872	0.594238318252866
325	9.141516	2.05612426757813	-0.837658081054688	7.90895324707031	0.866252073372567	0.498396755186243	-0.0347565791981035	-0.270648956873751	0.52660786671662	0.805874243821778	0.419948196234822	-0.688683402683698	0.591065718297995
326	9.141516	2.55548583984375	-1.75734558105469	7.30001953125	0.865905433367397	0.499319150249078	-0.0298021250812603	-0.271870736358029	0.519808081219032	0.809867804898758	0.419873889610873	-0.693166606880285	0.585854906891723
327	9.141516	2.21000427246094	-2.39741455078125	7.32516723632813	0.866052844653097	0.49909863201017	-0.0292066053120926	-0.267176874648264	0.511409381744057	0.816747795783587	0.422574239538409	-0.699543422376152	0.576255162483423
328	9.141516	2.54770202636719	-2.98359558105469	7.92332336425781	0.866703781858968	0.497983398297725	-0.0289324995673065	-0.261209989480265	0.502500867728835	0.824173658477076	0.424963405374018	-0.70675696880301	0.565597640678689
329	9.141516	3.70329895019531	-4.34576293945313	7.99337768554688	0.867834364701413	0.49624731199906	-0.0245381494209155	-0.258694446590016	0.493464625571166	0.830403424013531	0.424194175757732	-0.714304744939873	0.556621983584553
330	9.141516	3.36380493164063	-4.51401306152344	7.26708801269531	0.867930823447742	0.496338594021347	-0.0185495497044106	-0.258606134696238	0.483470401269176	0.836288968116938	0.424050648869678	-0.721043945388584	0.547975068786592
331	9.141516	3.19435729980469	-5.38041137695313	6.38093078613281	0.86895701170102	0.494738204212884	-0.0121581704152076	-0.257263162209505	0.47257081748023	0.842907164423244	0.422763973377108	-0.729322241370904	0.537921640256387
332	9.141516	3.60809692382813	-5.21695129394531	6.5863037109375	0.868471820189433	0.495712205664381	-0.00510947083446248	-0.258991032168666	0.462484129055377	0.847957590701386	0.422705976765249	-0.735103965114626	0.530039449173071
333	9.141516	3.13687683105469	-7.08027648925781	6.72641235351563	0.869528185484069	0.49386813762058	0.00387263372430161	-0.260277190933463	0.451564515056022	0.853431469200665	0.419733866311224	-0.743090675076333	0.521190684957082
334	9.141516	3.09855651855469	-5.98515380859375	5.78576843261719	0.86941322939317	0.493821258065598	0.0161617337760844	-0.266131273622495	0.440485012868372	0.857407195350272	0.416286898372033	-0.749742301408197	0.514384777888044
335	9.141516	2.82312927246094	-8.14007263183594	5.63069091796875	0.868677379568677	0.494463613579754	0.0300889526462498	-0.273692080220122	0.428423017332995	0.861130863135258	0.412907078469817	-0.756280009695446	0.507492159037533
336	9.141516	2.31478637695312	-7.81674499511719	4.4068359375	0.867103427730175	0.496289427823765	0.0427603724135008	-0.280488126185805	0.415510172244285	0.865261641256736	0.411652835150394	-0.762265111750423	0.499493586265888
337	9.141516	2.38843322753906	-9.26692932128906	5.00259704589844	0.866468405428357	0.496418401445785	0.0529270545227319	-0.284915750495478	0.404657638920185	0.868950637483591	0.409945749476732	-0.767998024717221	0.492060480547268
338	9.141516	2.73930358886719	-8.24066345214844	4.45114379882813	0.865753163924044	0.496250598001295	0.0648598731024498	-0.291251301448742	0.394188100256615	0.871658431394142	0.406994027671074	-0.773531567293435	0.485803227490966
339	9.141516	2.06031555175781	-8.88971374511719	3.16262329101563	0.863247555565384	0.499396809422324	0.0735288008143161	-0.295647586373827	0.38214111563503	0.875534506694365	0.409140761207826	-0.77754163520677	0.477527845301468
340	9.141516	2.71894592285156	-9.20585632324219	3.2428564453125	0.859722211315395	0.503137597418971	0.0879219963060079	-0.307387397184105	0.37220033970957	0.87577388358666	0.407910170777034	-0.779948373409129	0.474647055603535
341	9.141516	2.30999633789063	-9.18070861816406	1.06638244628906	0.854516603288866	0.508774048568718	0.104643882796151	-0.32164200437261	0.360101762253599	0.875712933469081	0.407857567941099	-0.781969109572014	0.47135603947369
342	9.141516	2.43633361816406	-10.1297351074219	0.635877685546875	0.849636094546806	0.514236190484163	0.116960024109034	-0.331885513351602	0.34902447869897	0.876375444256773	0.409842058445195	-0.783417547458089	0.467211337045837
343	9.141516	2.59440490722656	-9.62139221191406	1.58191040039063	0.844244975278463	0.520735002651593	0.126828540678012	-0.341209950499082	0.339723623872892	0.876449444670418	0.413311252444792	-0.783213199835214	0.464489926915969
344	9.141516	2.23455322265625	-9.426796875	0.770597534179688	0.839570570941683	0.526943069321899	0.13210699490289	-0.346429769803473	0.332003372786368	0.877359775150644	0.418458684941021	-0.78237124317813	0.461289027449537
345	9.141516	2.96144165039063	-9.74832824707031	0.958606567382813	0.83499571181213	0.532936900110191	0.136968688963193	-0.352711583381791	0.327325742412157	0.876614166724814	0.422346658804904	-0.780279513286919	0.461288609160322
346	9.141516	3.065625	-9.41601928710937	1.05620361328125	0.830453731081097	0.538754374028833	0.141740343580387	-0.359689809403652	0.324256505489684	0.87491768736195	0.425405502485158	-0.777561215025813	0.463064482921041
347	9.141516	3.16501831054688	-9.16514099121094	0.592168579101563	0.825633137642189	0.545491363640282	0.144114864677383	-0.364833106314582	0.321326574724378	0.873868432266982	0.43037974692586	-0.774072609365404	0.464311176762166
348	9.141516	3.20992492675781	-9.53277648925781	0.262853393554688	0.821583265977856	0.552562512972494	0.140269762681356	-0.364307816468553	0.319626756934213	0.874710552761103	0.43849829181546	-0.769748923681769	0.463902837419306
349	9.141516	3.81167358398438	-8.88312744140625	0.710123291015625	0.817241635843735	0.560625615437311	0.133472948416498	-0.361352044097327	0.318078606134449	0.876499116112646	0.448932967011936	-0.764542294209485	0.462530292515806
350	9.141516	4.38587951660156	-9.42739562988281	0.678389282226563	0.813378107117012	0.568413079684634	0.123784593977516	-0.356135898063858	0.318292641370653	0.878553934917796	0.45998182243758	-0.758680674126291	0.461324568752065
351	9.141516	4.95409790039063	-8.79690673828125	1.07356750488281	0.808432330222431	0.577717493611755	0.112604018694193	-0.350811146742267	0.31932477356212	0.880319957919208	0.472618986893783	-0.751181859847835	0.460822207215583
352	9.141516	5.98994384765625	-8.5693798828125	1.29091552734375	0.801439014057431	0.589337391170519	0.101867296592089	-0.346511989920916	0.318725853861005	0.882237649911644	0.487467893904512	-0.742357911959521	0.459651806222274
353	9.141516	6.35099304199219	-8.21970703125	1.39629638671875	0.793202828208553	0.601843044596895	0.092812838510059	-0.344190559405282	0.317358414100054	0.883638215457083	0.502356578675181	-0.732849634420486	0.458878285813927
354	9.141516	7.67005004882813	-7.72333923339844	1.30049560546875	0.783575182073525	0.615272254755482	0.086313304690227	-0.345403701216139	0.31591930206045	0.88368052924789	0.516436072737599	-0.722243066504445	0.4600638386807
355	9.141516	7.51377502441406	-7.19044738769531	1.78249328613281	0.772840137646529	0.629100338241586	0.0833719741089027	-0.350932426223782	0.314212959073134	0.882109204449877	0.528738644196907	-0.710987328139417	0.463608094577725
356	9.141516	8.44843139648438	-7.09464660644531	1.79267211914063	0.759902372451462	0.644388186008173	0.0855116955494166	-0.362404608346415	0.310766546035738	0.878684843225545	0.539639957927433	-0.698704529538856	0.469681483784452
357	9.141516	7.60837829589844	-6.2126806640625	1.53161499023437	0.746584645895281	0.659321279674417	0.0889202827363251	-0.375543278286044	0.307324879818577	0.874367579670398	0.549161736328734	-0.686182824335458	0.477047711386842
358	9.141516	7.63232849121094	-5.13851440429687	1.73339538574219	0.733612872642291	0.673336532344941	0.0918153979636149	-0.387757525290338	0.303801798392549	0.870257760019505	0.558082659356335	-0.674034406765073	0.483964217502303
359	9.141516	8.37658081054687	-5.58458679199219	2.56087463378906	0.720633868252347	0.687078752930115	0.0927880121548978	-0.397911886335477	0.300273565577977	0.866892102010412	0.567761357121636	-0.661633261775046	0.489784103735831
360	9.141516	7.56107666015625	-4.42419982910156	2.49022155761719	0.708416396651069	0.699718845054444	0.0924107506277809	-0.405974053756325	0.296870685363782	0.864322199094929	0.57734848803177	-0.649816384871383	0.49437575721319
361	9.141516	8.07420959472656	-3.91525817871094	2.85246826171875	0.695959025512499	0.712044863788155	0.0929147284374282	-0.415198617553324	0.293453779897771	0.861101031845578	0.585876388660186	-0.637869101788619	0.499871849771399
362	9.141516	7.76165954589844	-2.86264709472656	3.33686096191406	0.684029331399628	0.723457925644609	0.0933407928345234	-0.424552994564004	0.290788041981212	0.857436335506882	0.593176726272799	-0.626139716407395	0.506053778708896
363	9.141516	7.95745239257813	-1.77411071777344	4.00267639160156	0.672700572614394	0.733844886544409	0.0945812988750408	-0.434812491422252	0.288644112446738	0.853008014999278	0.598675234920772	-0.614944110340491	0.513255983160549
364	9.141516	7.80237487792969	-2.11001220703125	3.99070129394531	0.662117867592935	0.743029066249765	0.0975076208415986	-0.445953960903984	0.286096278811205	0.848100220495449	0.602266547442438	-0.605026219232179	0.52078621321362
365	9.141516	7.24673034667969	-1.27534790039062	4.21283935546875	0.653720466764765	0.750113056293979	0.0998997202706996	-0.455424448262357	0.28455368742614	0.843574401518393	0.604349338758458	-0.596958626497258	0.527638394160927
366	9.141516	7.54491027832031	-1.24541015625	4.15176635742188	0.647669984765562	0.755394482965645	0.0995126421056329	-0.46020736592366	0.283756489265435	0.841243980750746	0.607233703925749	-0.590644927096494	0.531418666318558
367	9.141516	8.06103698730469	-0.253273315429688	5.13372436523438	0.641553072401936	0.760701884735127	0.0987030792430625	-0.464234249466399	0.282604595590793	0.839417181247402	0.610652288060895	-0.584352021568669	0.534449715103867
368	9.141516	7.0509375	-0.406554565429688	4.7852490234375	0.637167605485805	0.764739907228378	0.0958661400694654	-0.464406288993879	0.281680483249887	0.839632600664746	0.615096936476211	-0.579507532003203	0.534627701385869
369	9.141516	7.61795837402344	-0.2059716796875	4.99541198730469	0.633988807195272	0.767544892289839	0.0945147113993189	-0.46549897642224	0.281161763257739	0.839201266581293	0.617550722856806	-0.576040711409861	0.535544772635732
370	9.141516	7.00842590332031	-0.485590209960938	4.59304870605469	0.632251122272278	0.769262815000612	0.0921587751805564	-0.463964451624527	0.280669811214818	0.84021511811047	0.620480060932016	-0.573985346964513	0.534364403245416
371	9.141516	7.67244506835938	-0.5316943359375	4.63735656738281	0.631314453971869	0.770362804394655	0.0893488097928725	-0.461062388090434	0.280187698729341	0.841971690598385	0.62358923539021	-0.572744273726031	0.532071858323192
372	9.141516	7.67963012695313	-0.751437377929688	4.73435485839844	0.630999064538243	0.770939391602059	0.0865600082492477	-0.457664210958412	0.279832781817763	0.843941398574537	0.626405340462289	-0.572141650901575	0.529405591908457
373	9.141516	7.67484008789063	-0.786165161132813	4.56251220703125	0.631421342427065	0.770963034610732	0.0832050935424975	-0.453164100485897	0.279798841530961	0.846377519968921	0.629245092438878	-0.572126391229896	0.526043730216266
374	9.141516	7.93769348144531	-1.1927197265625	4.32241149902344	0.633011216387694	0.769929937606438	0.0806516652321535	-0.448296674425661	0.27963852027388	0.849018486063719	0.631131437678608	-0.573594097909299	0.522171350437146
375	9.141516	7.62214965820313	-1.03764221191406	3.93860961914063	0.63592865580834	0.767848825096107	0.0774785552286985	-0.44134977734083	0.2794832791501	0.852701278711781	0.63309171433766	-0.576452321076111	0.516621334018415
376	9.141516	8.23347839355469	-2.24892333984375	3.688330078125	0.639739067981898	0.765090189809701	0.0732866041961873	-0.432289110222853	0.279336885255446	0.85737799698763	0.635499842706815	-0.580179201620277	0.509442876019355
377	9.141516	8.13109130859375	-1.9543359375	3.52187622070313	0.644208269336385	0.761729375745995	0.0690221981991115	-0.423052215133139	0.279687657210054	0.861859407139759	0.637198971271584	-0.584416950926279	0.502428401347363
378	9.141516	8.27539123535156	-3.31829956054688	3.44224182128906	0.650646954835278	0.756337869950634	0.0679085167126975	-0.415165363109975	0.279415668638386	0.865773992097895	0.63584295343846	-0.591506475533364	0.495806240344708
379	9.141516	8.43825256347656	-3.26081909179688	2.77403137207031	0.657084607603681	0.751066871891454	0.0643301826322843	-0.405126696676721	0.279884137090864	0.870366146770835	0.635698181600454	-0.59796607240887	0.488184799187548
380	9.141516	8.17719543457031	-3.8176611328125	2.77582763671875	0.664078554023106	0.745048555305001	0.0624685867017365	-0.396420599921219	0.280031369132178	0.874318672029861	0.633916699610195	-0.605380114093525	0.481315421958853
381	9.141516	8.06522827148438	-4.62598022460937	1.98068115234375	0.67228382653284	0.737972203560528	0.0585788643999011	-0.384354540064784	0.28032157477259	0.879597295498687	0.632697434888076	-0.613854088109735	0.47209862782793
382	9.141516	8.10714111328125	-4.93613525390625	2.84408569335938	0.681269222546418	0.729736654497075	0.0579367024813805	-0.375748172300125	0.280671311522391	0.883196991560443	0.628240047612467	-0.623464537862193	0.465409940379626
383	9.141516	8.04307434082031	-6.16837280273438	1.5663427734375	0.69033350736713	0.721141430826938	0.0582639283868969	-0.367523467853149	0.280173641115798	0.886808452486281	0.623190299333512	-0.63360695037917	0.458449651813386
384	9.141516	7.33175354003906	-6.24501342773438	2.43693237304688	0.699185313537322	0.712346226180661	0.0608502373034602	-0.362297930550115	0.279653676271911	0.889119806812732	0.616344146441597	-0.64370542594713	0.453611306906478
385	9.141516	7.14134948730469	-6.87011352539063	1.16098571777344	0.707587158562288	0.703838157605025	0.062707742240576	-0.356236544364357	0.27867357137719	0.891872504944078	0.610258910215237	-0.653416320973884	0.447918713594181
386	9.141516	7.00722839355469	-7.81674499511719	1.76213562011719	0.716251194959548	0.694842220286318	0.0646414311923804	-0.350775019589827	0.278402616438903	0.894119046207902	0.60327531969307	-0.663088434575323	0.443139500137002
387	9.141516	6.7012646484375	-7.85147277832031	1.70166137695313	0.724281424432466	0.685909784580709	0.0703149033884221	-0.350112470579569	0.27800012388807	0.89450387872993	0.594001410913096	-0.672490667990763	0.441495894996305
388	9.141516	5.76421325683594	-8.56758361816406	0.90052734375	0.731108411102938	0.677898882362243	0.0770298416625635	-0.350430944076265	0.276246637092451	0.894922314465859	0.58538760206239	-0.681278871525555	0.439522985251638
389	9.141516	4.69124450683594	-8.86815856933594	1.00890197753906	0.738175417561921	0.669811824255968	0.0803067431426322	-0.348232096134174	0.27637983351621	0.895739133256749	0.577781498604172	-0.689177994216621	0.437266774587634
390	9.141516	4.17631530761719	-9.28010192871094	0.669407958984375	0.745382480062084	0.661739063740076	0.0806620724808413	-0.343641906815355	0.277727591550159	0.897093988817256	0.571240053127233	-0.696397010628388	0.434414554649175
391	9.141516	3.47397583007813	-9.62438598632813	1.34001342773438	0.752626099150169	0.653303727940019	0.0821473915451557	-0.340147377749592	0.278938182136624	0.898049693478257	0.563785168559866	-0.703837857468599	0.432155705858357
392	9.141516	2.85606079101563	-9.44595703125	0.458047485351563	0.759730469413015	0.645092943823634	0.0816376608829389	-0.336492805093481	0.282611240132215	0.898278063336322	0.5564011196662	-0.709919700233688	0.431777504340268
393	9.141516	2.40519836425781	-9.21543640136719	0.28500732421875	0.76592359572964	0.637545039136924	0.0830503978104667	-0.332479323731245	0.282202397612734	0.899899608885812	0.550289509981603	-0.716866884333153	0.428116018563526
394	9.141516	1.9495458984375	-9.59564575195312	0.09819580078125	0.77172100185341	0.630789575185983	0.080939527642911	-0.326382903718284	0.28360369715102	0.901689050129087	0.545821303595592	-0.722269655183547	0.42474186247914
395	9.141516	2.22437438964844	-9.62139221191406	-0.482596435546875	0.776088374479128	0.625807740295469	0.0777914338769008	-0.319566492927946	0.283931422489672	0.904024448740589	0.543658064960025	-0.72646240061635	0.420343060956942
396	9.141516	2.3710693359375	-9.53876403808594	-0.039517822265625	0.779409394328731	0.621892499605124	0.0759652220888813	-0.3136116262176	0.282300384770223	0.906616920567743	0.542373251491327	-0.730449321783158	0.415060290046218
397	9.141516	1.96690979003906	-9.62438598632813	-0.0281414794921875	0.780952498993874	0.62004043605396	0.0752532522436081	-0.309668087542073	0.279737557001492	0.908764311997821	0.542419459342361	-0.733005291154745	0.410468480234339
398	9.141516	2.14054870605469	-9.26094177246094	0.525108032226563	0.781140150141354	0.619605694785115	0.0768690368548939	-0.30973665976699	0.277668424333545	0.90937530630896	0.542110014142454	-0.734158722019961	0.408812552948765
399	9.141516	1.4178515625	-9.90340576171875	0.527503051757813	0.780633658134463	0.619147894269896	0.085246564791554	-0.316509420742783	0.274024057907391	0.908147896693614	0.538918248316639	-0.735912155565541	0.409878544110575
400	9.141516	0.99393310546875	-9.47050598144531	-0.444874877929687	0.779600124822873	0.619260743786511	0.0934867722254792	-0.323802482395471	0.270784634185762	0.906547094354956	0.536074246509466	-0.737015476834687	0.411621900699474
401	9.141516	0.692759399414063	-9.98363891601563	-1.22205871582031	0.779318763187007	0.619213240570132	0.0961104991523211	-0.326000798867672	0.269653764185747	0.906096201624363	0.535150207401915	-0.737469870681571	0.41201024908926
402	9.141516	1.17715209960938	-9.12562316894531	-0.5508544921875	0.778841346285004	0.620313664174932	0.0928284188965431	-0.322451385569393	0.269045191555766	0.907546025744755	0.537988160893287	-0.736767020800056	0.409564519703634
403	9.141516	1.04482727050781	-9.53577026367187	-0.553848266601562	0.778888898348145	0.620995545441461	0.0877303628846615	-0.316183883936407	0.268009542988378	0.910054194213756	0.541627026254138	-0.736570035644284	0.405098441149896
404	9.141516	1.0681787109375	-9.66210754394531	0.33769775390625	0.778126348556221	0.622034061036507	0.0871378941276109	-0.315286945095173	0.266827027161924	0.910712621977144	0.543243525442427	-0.736122927564657	0.403744359190964
405	9.141516	0.777782592773438	-9.77946350097656	-0.741258544921875	0.777468165070262	0.622854449408424	0.0871526657906124	-0.315531989741189	0.26642196361732	0.910746342705947	0.544043027482429	-0.735575741956205	0.403665098928966
406	9.141516	1.09332641601563	-9.46811096191406	-0.814905395507812	0.776780966442263	0.623798152285907	0.0865285812764321	-0.314770260677897	0.265562577641441	0.911260775162194	0.545464034713374	-0.735086649695886	0.402637062716643
407	9.141516	0.76640625	-9.66450256347656	-0.795146484375	0.776574486474643	0.624336809884388	0.0844725682102251	-0.312502346860939	0.265293151759964	0.912119414789352	0.54705973180545	-0.734726541954659	0.401126611413776
408	9.141516	0.99393310546875	-9.51182006835938	-0.219743041992187	0.776071561283524	0.624931061775018	0.0847000578258513	-0.312796482731366	0.264817564015858	0.912156794734104	0.547605051253037	-0.73439282799974	0.40099361843389
409	9.141516	0.919088745117188	-9.64953369140625	-0.77838134765625	0.775787274487978	0.625322256360214	0.0844167071324569	-0.312194379683506	0.264120933624122	0.912564957532095	0.548350958817933	-0.734310702715202	0.400123753158145
410	9.141516	1.02925964355469	-9.46631469726563	-0.470022583007813	0.775360876985845	0.625841188530544	0.0844885624118402	-0.311960593993992	0.263250056011087	0.912896486905868	0.549086603583313	-0.734181322800326	0.399351583215224
411	9.141516	0.875978393554688	-9.65791625976563	-0.646056518554687	0.775252955604799	0.626105639717979	0.0835139673310078	-0.31042897891866	0.262511674782616	0.913630926386769	0.550106084199714	-0.734220231617304	0.397874286188855
412	9.141516	1.02686462402344	-9.63097229003906	-0.429906005859375	0.774820832747307	0.626723582036993	0.0828868437056811	-0.309564914864729	0.261819755132017	0.914122518761793	0.551200726256382	-0.733940029935233	0.396875033018085
413	9.141516	0.994531860351563	-9.62079345703125	-0.725092163085937	0.774344152205966	0.627386251537792	0.0823263343395249	-0.308809817910966	0.261133459380313	0.914574115506156	0.552293065596719	-0.733618298417801	0.395950201313688
414	9.141516	1.07596252441406	-9.56690551757813	-0.300574951171875	0.773582377020652	0.628478870002248	0.0811456463636553	-0.307802367969673	0.260724374033354	0.915030329036791	0.553920579357132	-0.732828159083432	0.39513906541754
415	9.141516	1.1448193359375	-9.64893493652344	-0.432899780273438	0.77276280261241	0.629727980942192	0.0792484758029098	-0.305751976846025	0.259932388217666	0.915942619496554	0.556195450856407	-0.732036763813083	0.393406655857152
416	9.141516	1.31127319335938	-9.62079345703125	-0.47660888671875	0.771865272690426	0.631345512629292	0.0750122956413821	-0.301922099087235	0.260151777565515	0.917149987031707	0.559523946670107	-0.730564094595648	0.391419285153848
417	9.141516	1.50107849121094	-9.62438598632813	-0.1963916015625	0.770441331980615	0.633646452183294	0.0700879990544784	-0.297912315592852	0.260651418479393	0.918318621319848	0.563620800001243	-0.728390699885854	0.38958770787302
418	9.141516	1.7866845703125	-9.5273876953125	-0.353265380859375	0.768385557927159	0.6367021312642	0.0647613342403789	-0.293940628047961	0.261214314144705	0.919437865909753	0.568491461283051	-0.725518764836263	0.387865930855914
419	9.141516	1.85554138183594	-9.44775329589844	-0.677191772460938	0.765998693750452	0.640291955528878	0.0572032591519692	-0.288291305579108	0.262624957698304	0.920823682754444	0.574572993013155	-0.721840940428686	0.385760978354389
420	9.141516	2.22856567382812	-9.4124267578125	0.0892144775390625	0.762242872767073	0.645517306497631	0.0478874715123264	-0.280982164356104	0.263327183240868	0.922880175255808	0.583125051965322	-0.716914361397841	0.382098118540207
421	9.141516	2.58602233886719	-9.17472106933594	0.272433471679688	0.757364554763221	0.651817444664802	0.0391529056259695	-0.275009599440908	0.264010018115231	0.924482790835042	0.592257251035106	-0.710937922160186	0.379207884188735
422	9.141516	2.77882141113281	-10.183623046875	-0.017962646484375	0.752002094165359	0.658457414874158	0.0304414711890806	-0.269603058183308	0.265105281511153	0.925760973865879	0.601503982853915	-0.704381304771878	0.376881859604232
423	9.141516	3.50271606445312	-8.708291015625	0.528700561523437	0.745760523073263	0.665830982270159	0.0225908227971022	-0.264704075963413	0.265021755093132	0.927197509431357	0.611369768956439	-0.697447182499516	0.373890937613682
424	9.141516	4.04279296875	-9.43458068847656	0.140108642578125	0.738010352731855	0.674630758472337	0.0146307547188474	-0.26174067349739	0.266211412387543	0.927697851539909	0.621958631339526	-0.688480082237438	0.37304508744198
425	9.141516	4.33199157714844	-8.60111389160156	0.8669970703125	0.72944550061356	0.683979034768182	0.00905216174284473	-0.260235089663588	0.265246889668287	0.928397428706631	0.63260331942096	-0.679571017274049	0.371478495661185
426	9.141516	4.67208435058594	-9.5944482421875	0.2921923828125	0.720443661328346	0.693509207806801	0.00243095433759005	-0.25926697761627	0.266081948470002	0.928429335499548	0.643227459900099	-0.669511295935767	0.371501089426232
427	9.141516	5.73307800292969	-7.99098266601563	1.19691101074219	0.71060855825174	0.70358606946319	-0.00145595217075667	-0.260436374430624	0.264957004170853	0.928423761444223	0.653611789836151	-0.65936668766184	0.371520119763436
428	9.141516	6.38212829589844	-8.65260681152344	1.06877746582031	0.700229468494233	0.713913719445888	-0.00242747589521097	-0.265405076208902	0.263471321567796	0.927438951216664	0.662750961504268	-0.64877581944633	0.373966708581007
429	9.141516	5.84684143066406	-8.19276306152344	0.861009521484375	0.689171270253256	0.724581850334341	-0.00490942191878319	-0.269775856339172	0.262868307198612	0.926348336430202	0.672505723093848	-0.637088216212323	0.37663597434316
430	9.141516	7.10243041992188	-7.98200134277344	1.43880798339844	0.678072385786731	0.734980412452348	-0.00465112296827658	-0.277148747337608	0.261540424591161	0.924545930797313	0.680739606224498	-0.625620012160777	0.38104224031105
431	9.141516	6.9359765625	-7.45629455566406	1.56873779296875	0.666903517208169	0.745134158971902	-0.00384497966310898	-0.285928290817723	0.260667286604313	0.922115816047204	0.688102253480853	-0.61386289253186	0.386894866762263
432	9.141516	7.54491027832031	-6.42643615722656	2.232158203125	0.65574252427415	0.754982630709892	-0.00172313230365967	-0.296948492778165	0.260012588991564	0.918811757762536	0.694134954094189	-0.601992259827545	0.394692265711382
433	9.141516	7.36767883300781	-5.97377746582031	2.41597595214844	0.644917141152506	0.764251641954482	0.00114403564522358	-0.308896559416446	0.259293934933764	0.91506806899118	0.699045632722472	-0.590496471688395	0.403297805963776
434	9.141516	6.98088317871094	-5.83546508789063	2.35969299316406	0.634327350342219	0.773062827274198	0.00163636629233743	-0.31785822770618	0.258884030830381	0.912110303450466	0.704694940869669	-0.579096644497132	0.409941601505454
435	9.141516	7.68142639160156	-4.73435485839844	3.09855651855469	0.624296428426235	0.78118723338164	0.000689823010678325	-0.325399028229121	0.259244078128019	0.909344808300513	0.710189722455761	-0.567925183767274	0.416042718673355
436	9.141516	7.52874389648438	-4.30983764648438	3.38775512695313	0.614979112408042	0.788543121351712	-0.000661113240046085	-0.331484233131131	0.259282709739808	0.90713322043427	0.715485076355394	-0.557648834123126	0.420843062570639
437	9.141516	7.63232849121094	-4.37869445800781	3.4152978515625	0.605751129054666	0.795648552063681	-0.0029918636275782	-0.336641148650512	0.25969849353926	0.905112937422012	0.720928780590885	-0.547265999357175	0.425160698164037
438	9.141516	7.80417114257813	-3.52546875	3.82304992675781	0.59712031238196	0.80213246857538	-0.00555296299626579	-0.3408651202949	0.259999796077683	0.90344400811888	0.726125541698689	-0.53757195694784	0.428670139846544
439	9.141516	7.70777160644531	-3.25123901367188	3.80867980957031	0.588834738606085	0.80820658885045	-0.00870404213121501	-0.344001630835226	0.260344950355599	0.902154856334014	0.731393552469126	-0.528225914323653	0.431324535406384
440	9.141516	8.11492492675781	-2.93449768066406	4.00626892089844	0.581210041742383	0.813674942309727	-0.0113126316602358	-0.347135210847971	0.260485064825399	0.900913245763676	0.735997304864191	-0.519692812399951	0.433851758060835
441	9.141516	8.01193908691406	-2.3519091796875	4.11404479980469	0.573893507838279	0.818805223909357	-0.0142914995652367	-0.350101987941339	0.261084993356114	0.899590587035992	0.740320768113794	-0.51126571520393	0.436500319308493
442	9.141516	8.10474609375	-2.2369482421875	4.26014099121094	0.567232752989665	0.823403959181508	-0.015903582614734	-0.353965576848668	0.261187766837576	0.898047504790582	0.743609692205499	-0.503772637663676	0.43961091342166
443	9.141516	7.70896911621094	-1.7292041015625	4.28768371582031	0.561737335615915	0.827136829701223	-0.0171997304322482	-0.35814028193231	0.261861230756036	0.896194306099062	0.745779259722726	-0.497265885396076	0.443328247451793
444	9.141516	7.83410888671875	-1.41485778808594	4.51042053222656	0.55654330165696	0.830613344821129	-0.0184668564142986	-0.362106501480557	0.262510670442095	0.894408759734358	0.747755598418548	-0.491090235403941	0.446869047624268
445	9.141516	7.62753845214844	-1.05740112304687	4.84512451171875	0.552957759308832	0.83300268773462	-0.0185536693690622	-0.364960780593255	0.262163396019875	0.893349865627173	0.74902693212522	-0.487213378320245	0.44897859518785
446	9.141516	7.84548522949219	-1.46814697265625	4.69184326171875	0.549847361759392	0.835053054981206	-0.0188221713091923	-0.368431302807397	0.262697049536448	0.891767141846171	0.749617404999298	-0.48340113315072	0.452102964589614
447	9.141516	7.17128723144531	-0.99872314453125	4.63376403808594	0.547065342167435	0.83685974539589	-0.0196284980360911	-0.370195446432652	0.262899050332304	0.890976666795995	0.750782820021713	-0.480156074490679	0.453624625973883
448	9.141516	7.50299743652344	-1.22325622558594	4.56370971679688	0.5449992892098	0.838141883756757	-0.0222251536212812	-0.368539538188807	0.263283122370697	0.891549553455285	0.753096530036087	-0.477703025076682	0.452377537329378
449	9.141516	7.87063293457031	-1.41006774902344	5.06905883789063	0.543194547108573	0.839267835790713	-0.0238575731935258	-0.368333127107194	0.263736537075104	0.891500839308112	0.7545000937488	-0.475470860115323	0.452390395249775
450	9.141516	7.77543090820313	-1.20888610839844	5.00199829101563	0.541530496105267	0.840309891558999	-0.0249801508419603	-0.368623972402083	0.264052123108777	0.891287183377085	0.755553498276921	-0.473450908151892	0.452750647499986
451	9.141516	7.64729736328125	-1.18194213867188	4.88643859863281	0.540164507339675	0.84114060492356	-0.026547839070505	-0.367281247257121	0.264009474794939	0.891853958129779	0.757183458894699	-0.471997330466315	0.451543718380549
452	9.141516	7.78620849609375	-1.48191833496094	5.03852233886719	0.539331659665735	0.84164149683935	-0.0275853526390811	-0.366524808488571	0.264112783707227	0.892134520262968	0.758143077291233	-0.471045675365392	0.450926874420834
453	9.141516	7.38384521484375	-1.42623413085938	4.63256652832031	0.539478414096543	0.841510493906355	-0.0286902312531983	-0.364860584454976	0.264343183807499	0.89274824843608	0.758841086549122	-0.471150474710573	0.449641452209369
454	9.141516	7.58502685546875	-1.5759228515625	4.70980590820313	0.540756215205398	0.840661387811625	-0.029515195397734	-0.36327304414436	0.265035183168252	0.893190375609288	0.758693225958175	-0.472276172091716	0.448709043991285
455	9.141516	7.79878234863281	-1.78249328613281	4.68405944824219	0.543685324537464	0.838756358149853	-0.0299004940726447	-0.36120269367783	0.265993830999077	0.893744871845604	0.757587540791474	-0.475115831701734	0.447577998234831
456	9.141516	8.45681396484375	-1.45018432617187	4.95529541015625	0.547794919001867	0.836051600042675	-0.0306341114090411	-0.358616193243941	0.267738442814618	0.89426537011249	0.755853922830968	-0.478888137570025	0.44648740075813
457	9.141516	7.34971618652344	-2.32017517089844	4.47808776855469	0.552293282121929	0.833087462415578	-0.0306171600407416	-0.355556953036816	0.268616342888537	0.895223164066013	0.754023463607176	-0.483539595378869	0.444565041395156
458	9.141516	6.79826293945313	-0.824485473632813	4.6894482421875	0.556487345330739	0.830256504070498	-0.0315590230422747	-0.350321239133941	0.268909667021634	0.897197091164464	0.753390246750253	-0.488223031442547	0.440501314039633
459	9.141516	7.50539245605469	-3.70389770507813	4.61101135253906	0.561103551007277	0.827161837501587	-0.0310821432340754	-0.346002373780402	0.268491470664171	0.898996489158283	0.751960878227951	-0.493675627068614	0.43685147688094
460	9.141516	6.98806823730469	-3.85478393554688	4.48287780761719	0.566378021030438	0.823573422848153	-0.0307043070565318	-0.340774947982784	0.267950234075643	0.901152099751279	0.750392145561889	-0.499929484264516	0.432414313641489
461	9.141516	6.7108447265625	-4.27510986328125	3.88412292480469	0.572620640921768	0.819289834312227	-0.0294918460423783	-0.333449323571615	0.265617358356861	0.904576678645407	0.748944023408944	-0.508145241375108	0.425289623042765
462	9.141516	6.87011352539063	-5.93306213378906	3.47397583007813	0.58157045836299	0.812953697373018	-0.0296999644276011	-0.323220296212261	0.264420577208151	0.908631057396437	0.746528259395396	-0.518833349233111	0.416542331159311
463	9.141516	6.42583740234375	-5.57440795898438	3.32668212890625	0.587527082601632	0.808637063062888	-0.0302989678147905	-0.314245605454718	0.262503901870723	0.912327463663702	0.745695398042668	-0.52649577561807	0.408338795112973
464	9.141516	6.17855163574219	-6.45278137207031	2.69798950195313	0.593785780090027	0.804005252047294	-0.0315277979447405	-0.305393970634457	0.261449045144536	0.915630339980677	0.744414514946477	-0.534059876299818	0.400783081558622
465	9.141516	6.96292053222656	-6.56055725097656	2.84707946777344	0.600383915239878	0.799095550232339	-0.0313919722239833	-0.297619497873396	0.259700145730574	0.918683007785115	0.742268003356485	-0.542219638067817	0.393746206695103
466	9.141516	6.18334167480469	-6.75156005859375	2.74050109863281	0.608242440658452	0.793178185489837	-0.0301579084967734	-0.290359799547737	0.257699507485989	0.921565055027629	0.738736976324083	-0.551778334029643	0.387050836334226
467	9.141516	5.81750244140625	-7.91015075683594	2.16629516601563	0.616191491021847	0.78702686863397	-0.0299458584862864	-0.281364696219202	0.255484824578139	0.924965627540696	0.73562351383962	-0.561530241802243	0.378869150799806
468	9.141516	5.26545043945312	-8.06283325195313	1.66573608398438	0.624894912280019	0.780208110999692	-0.027958042435773	-0.273777306486917	0.252533198133102	0.928047935342478	0.731130860420565	-0.572278155594778	0.371409985823919
469	9.141516	5.16126708984375	-8.73942626953125	1.31845825195313	0.634556595951871	0.772333839336124	-0.0289545704561047	-0.261986717097614	0.250193962728044	0.932076145536862	0.727118206757602	-0.583869353221045	0.361103436387483
470	9.141516	5.32352966308594	-8.97114440917969	1.54299133300781	0.643589203098717	0.76472088008734	-0.0315422448979747	-0.251280088499083	0.250045501251602	0.935059123493124	0.722946232287473	-0.593868018049701	0.353085715314381
471	9.141516	4.55472839355469	-8.56159606933594	1.77411071777344	0.65270459274263	0.757002585975833	-0.0303940691349223	-0.245125114738704	0.248972517319494	0.93697724825309	0.716861487832213	-0.604119003546069	0.348065851265949
472	9.141516	4.27870239257813	-9.04539001464844	0.901724853515625	0.661586206694448	0.749370848951748	-0.0273317005140015	-0.240280984916631	0.246378344340988	0.938915736223058	0.710330021468292	-0.614606412414587	0.343060079898151
473	9.141516	2.77822265625	-8.880732421875	0.91729248046875	0.669625394476168	0.742191888559013	-0.0274414217897377	-0.232054984093571	0.244178818081122	0.941555728121198	0.705515637976912	-0.62412170716753	0.335737664274235
474	9.141516	3.36380493164063	-10.6584356689453	0.279019775390625	0.677195362476203	0.735284201476415	-0.0276330255295071	-0.22385428643683	0.2416533414025	0.944189028231564	0.700924888618304	-0.633214660007329	0.328243042374429
475	9.141516	2.059716796875	-10.2033819580078	-0.320333862304688	0.684272418635469	0.728599027748803	-0.0302442367776797	-0.215728185265212	0.241873199159241	0.946022571406545	0.696586396060779	-0.640812618705322	0.32268650503404
476	9.141516	2.47944396972656	-9.69563781738281	0.36643798828125	0.688344206713893	0.724988966630163	-0.0239426679371785	-0.219157128226959	0.239317484286578	0.945884398254912	0.691485651500257	-0.645846839412621	0.323619303796906
477	9.141516	1.56035522460938	-9.18130737304688	0.115559692382813	0.690726667815661	0.723048433623802	-0.00988094137415374	-0.233838296205951	0.236273743697839	0.943130091380031	0.684263342285535	-0.649134562839766	0.332276989469711
478	9.141516	0.684376831054687	-10.1578765869141	-0.852028198242188	0.693344035599336	0.720598130996946	0.00351879276687628	-0.24799211284468	0.234022168433176	0.940071027448813	0.676589949870421	-0.652665272774294	0.340960527699026
479	9.141516	0.379011840820313	-9.64414489746094	-1.19212097167969	0.69609868509502	0.717926583926219	0.00529534710994328	-0.246162919256507	0.231736984424282	0.941117307902185	0.674426006165317	-0.656414038653935	0.338038713856757
480	9.141516	0.921483764648438	-10.0195642089844	-0.477207641601563	0.696326997479364	0.717706988654244	0.00503895011191574	-0.242213820903354	0.228378001692725	0.942961268189864	0.675619106852945	-0.65782989197793	0.332864320220016
481	9.141516	0.708327026367188	-9.89562194824219	-0.473016357421875	0.697456833902967	0.71661669720892	0.00380448727532512	-0.238314049352828	0.226929083990505	0.944303767185268	0.675840497989805	-0.659517778471975	0.329053067386226
482	9.141516	0.625698852539063	-9.49265991210938	-0.966390380859375	0.697518704466043	0.716566266764026	0.000665023217581939	-0.23052972433791	0.223522925118184	0.947044638939104	0.678471593448613	-0.660734657243343	0.321101245093852
483	9.141516	0.710722045898438	-10.0566870117188	-0.84544189453125	0.697157076242331	0.716906668658317	-0.00410359336186494	-0.222195254603349	0.221509145297345	0.949506696859687	0.681616666372675	-0.661043513683384	0.313719927865808
484	9.141516	0.805924072265625	-9.84772155761719	0.0580792236328125	0.696308360870175	0.717721104789536	-0.00557515219331067	-0.219555437699189	0.220387566444989	0.950381360472297	0.683337454234003	-0.66053443233199	0.311037276455489
485	9.141516	0.557440795898438	-10.5338946533203	-0.383801879882813	0.697102310938148	0.716939732245246	-0.00676671359007908	-0.221846547694818	0.224663676306002	0.948846848455831	0.681786240225326	-0.659942158735739	0.315664172440629
486	9.141516	0.44786865234375	-9.5082275390625	-1.37054992675781	0.697059796220306	0.716979744083222	-0.00690558235505689	-0.222033862552323	0.225002676916398	0.948722698822238	0.681768732323066	-0.659783177987142	0.316034102070942
487	9.141516	0.312550048828125	-9.33458862304687	-0.943038940429688	0.697076059110085	0.716939058579511	-0.00912984658568672	-0.218505216417668	0.224544767114044	0.949649997609629	0.682891234541652	-0.659983358763556	0.313179705506845
488	9.141516	0.616717529296875	-9.41302551269531	-0.7137158203125	0.697238155060247	0.716763543322368	-0.0104392572603311	-0.215601376445116	0.223572288951274	0.950542728175888	0.683648302567303	-0.660503939864898	0.310418336796964
489	9.141516	0.537681884765625	-9.5561279296875	-0.786763916015625	0.697420140247393	0.716577251167062	-0.0110540077422055	-0.213736298527717	0.222695090643785	0.951169643804315	0.684048202006977	-0.661002223682352	0.308470610622808
490	9.141516	0.554447021484375	-9.66929260253906	-0.867595825195313	0.697411977145855	0.71657022630623	-0.0119851952403172	-0.211821205617861	0.222076580275842	0.951742491088626	0.68465196339754	-0.661217893938471	0.306663636174014
491	9.141516	0.563428344726563	-9.67827392578125	-0.604143676757813	0.697665261036028	0.71632830712028	-0.0117021349217201	-0.211074500036492	0.221129452369273	0.952128836202964	0.684624524084463	-0.661797190771508	0.305472976397362
492	9.141516	0.594563598632812	-9.76808715820312	-0.86460205078125	0.697874390352293	0.716129975527383	-0.0113663292916018	-0.211424236778727	0.221145394731895	0.952047533735269	0.684303388412587	-0.662006474696452	0.305738941037983
493	9.141516	0.49097900390625	-9.43458068847656	-0.829874267578125	0.69806977871794	0.715938152750835	-0.01145187654527	-0.210499921544682	0.220480602102148	0.952406471589918	0.684389046573928	-0.662435555757989	0.30461577010594
494	9.141516	0.658031616210938	-9.76988342285156	-0.762813720703125	0.698333135903659	0.715664063081909	-0.0124811903300385	-0.208838592876215	0.220397930702847	0.952791264793809	0.684629296352737	-0.662759157579129	0.303369454000497
495	9.141516	0.7137158203125	-9.68007019042969	-0.652044067382813	0.698470935077688	0.7155131349333	-0.0133905410503377	-0.207779592203529	0.220664948572835	0.952960975872089	0.68481091836757	-0.6628332627511	0.302797080361248
496	9.141516	0.996328125	-9.69444030761719	-0.410745849609375	0.698030224886562	0.715897170274478	-0.0156539687559183	-0.205642136337933	0.22135414084705	0.953264735575714	0.685904597525915	-0.66218848217321	0.301730504208563
497	9.141516	0.834664306640625	-9.64055236816406	-0.623303833007813	0.697558383479531	0.71626108881072	-0.0195538817912523	-0.201719729642535	0.22249221786217	0.953837702999685	0.687547418226821	-0.661413082457895	0.299685305017077
498	9.141516	1.19391723632812	-9.66989135742188	-0.02155517578125	0.696535559057487	0.717176852915467	-0.0222615500525418	-0.200158704202316	0.224004720835187	0.953812548761862	0.68903897429719	-0.659908513875838	0.299576443021908
499	9.141516	1.02806213378906	-9.5273876953125	-0.3592529296875	0.694935360333782	0.718616524711149	-0.0255956123159271	-0.197859265028347	0.225317916954738	0.953982991222391	0.691315091835987	-0.657892184716652	0.298766325225171
500	9.141516	1.3651611328125	-9.50044372558594	0.196990356445313	0.692158139100361	0.721066824455271	-0.0313008809319721	-0.193940823703099	0.227588534497293	0.954248613238048	0.695200738908187	-0.654420425747368	0.297371550398058
501	9.141516	1.71902526855469	-9.73216186523438	0.2347119140625	0.688925986817055	0.723854729686525	-0.0376206724899305	-0.1899536674126	0.230389293628895	0.954378529524676	0.699498812668506	-0.650349985539807	0.296220032043283
502	9.141516	2.31299011230469	-9.56930053710938	0.454454956054687	0.68367853455246	0.72870832375463	-0.039595962962391	-0.191512064093866	0.231504423486768	0.953797059763012	0.70420649720001	-0.644507471482509	0.297831040196476
503	9.141516	2.16569641113281	-9.70102661132812	0.226928100585938	0.67789836103228	0.733911492197793	-0.0427520026403254	-0.191914596672351	0.232805085756714	0.953399485855692	0.709663722965911	-0.638103215526939	0.298666514092798
504	9.141516	2.56566467285156	-9.01724853515625	0.800535278320313	0.670416640731143	0.7403641051099	-0.0490155046448186	-0.188371749305543	0.23372620548868	0.953880571629087	0.717675143706635	-0.630264272137236	0.296157619137142
505	9.141516	3.12011169433594	-9.21423889160156	0.763412475585938	0.662604647936732	0.746875407539653	-0.0559661160446037	-0.183611108906895	0.234428463205802	0.954636190558973	0.726114344451768	-0.622270376324829	0.292468011122475
506	9.141516	4.24996215820313	-9.34297119140625	1.05620361328125	0.653473518418359	0.754331827787255	-0.0628955826196826	-0.180178000651107	0.235712191645854	0.954974162368217	0.735192661012949	-0.612717925555183	0.289945675767121
507	9.141516	4.70142333984375	-9.16514099121094	1.18673217773438	0.64450225485559	0.761557029571483	-0.0681742927819557	-0.178396443454186	0.236478011780246	0.955119290406889	0.743499530900294	-0.603414484956006	0.288269677379222
508	9.141516	5.49477355957031	-8.88791748046875	1.43401794433594	0.63484435139021	0.769265560013447	-0.0721328474770157	-0.179405738471593	0.237573280949536	0.954658324837916	0.751522608117285	-0.593118398261318	0.288832711327028
509	9.141516	5.23970397949219	-7.78800476074219	1.28552673339844	0.624856760613795	0.777096115487916	-0.0753369498242801	-0.180391434657429	0.237584068234182	0.954469874235709	0.759613690646416	-0.582816813256865	0.288637494389839
510	9.141516	6.12526245117188	-7.92092834472656	1.52862121582031	0.614669857081087	0.78480061246114	-0.0791767988525405	-0.181751290122244	0.238593761829422	0.9539598971419	0.767559401828169	-0.571979908298102	0.28929491728767
511	9.141516	6.734794921875	-7.32097595214844	1.88368286132813	0.604972972174691	0.792039976685278	-0.0817335810453991	-0.184918372163523	0.239597544281197	0.953099266818946	0.77447588637382	-0.561485255466966	0.29141278166663
512	9.141516	7.24014404296875	-6.75036254882813	2.2656884765625	0.594286399328243	0.800093097143069	-0.0816989074436361	-0.191342074958403	0.239323565343149	0.951899386186406	0.781160601876519	-0.550068420267384	0.295318213289427
513	9.141516	7.50958374023438	-6.4138623046875	2.24533081054688	0.583653738966811	0.807786167572508	-0.0826427278626593	-0.197650508214658	0.240045433571039	0.950427517711992	0.787580211529308	-0.538386197167249	0.299762761375123
514	9.141516	7.40240661621094	-5.97198120117188	2.23575073242188	0.572699205814688	0.815220962333889	-0.086199780919871	-0.200843483881301	0.241481094013052	0.949393899399338	0.794781425702468	-0.526404467881559	0.302027848968742
515	9.141516	8.35143310546875	-5.21395751953125	2.78840148925781	0.562064692897201	0.822208404854933	-0.0897586763732718	-0.204360303768838	0.24321437932899	0.948200206671103	0.801448780173683	-0.514606747598125	0.304728974803178
516	9.141516	7.80836242675781	-4.64813415527344	2.41238342285156	0.551688314954191	0.828867290887589	-0.0928386624185931	-0.208208808190821	0.244651798581428	0.946992391544214	0.807644163809015	-0.503114809509262	0.30754900929396
517	9.141516	8.61787902832031	-3.81885864257813	3.1278955078125	0.541461716301329	0.835330788367483	-0.0950877688526688	-0.213885402589428	0.246247813035899	0.945312143756862	0.813063493424208	-0.491512450076696	0.31199882544719
518	9.141516	8.45322143554688	-2.88060974121094	3.47457458496094	0.532626645296	0.840764497619946	-0.0970768575027464	-0.219210915331739	0.247830157881942	0.94367726869075	0.817468917647729	-0.48134735107414	0.316305700697535
519	9.141516	8.37179077148438	-2.35370544433594	3.44044555664063	0.524248380940422	0.845776523038204	-0.099124710131997	-0.225015328319155	0.249849983142604	0.941776559458274	0.821298811092996	-0.471420257308749	0.321296131156577
520	9.141516	8.15983154296875	-1.60705810546875	3.60450439453125	0.515978325954962	0.850528000203274	-0.101825772842309	-0.229761564475123	0.251932649669604	0.940074232983969	0.8252126941793	-0.461662280136326	0.325410430786522
521	9.141516	8.00235900878906	-0.9340576171875	3.40511901855469	0.508700484954191	0.854766315276522	-0.10294835052573	-0.235066853874777	0.252928790882991	0.93849379377377	0.82823148383576	-0.453212503149534	0.329592227111243
