// Start Time: Unknown
// Update Rate: 100.0Hz
// Filter Profile: human (46.1)
// Option Flags: AHS Disabled ICC Disabled 
// Firmware Version: 4.0.2
PacketCounter	SampleTimeFine	Acc_X	Acc_Y	Acc_Z	Mat[1][1]	Mat[2][1]	Mat[3][1]	Mat[1][2]	Mat[2][2]	Mat[3][2]	Mat[1][3]	Mat[2][3]	Mat[3][3]
1	0.0001	2.63092895507812	5.06247253417969	10.4009710693359	0.0344825120145929	-0.898713418527464	0.437178622217331	0.974719293252291	-0.0663823293968658	-0.213344054769757	0.220756100089938	0.433483076604527	0.873704278672456
2	0.0001	1.11488159179688	-0.723894653320313	13.6294573974609	0.0249212249924658	-0.901838081124355	0.431354851576769	0.977183983776901	-0.0690653566610562	-0.200851782066244	0.210927462400655	0.426518524736292	0.879540535542278
3	0.0001	0.125738525390625	-0.387394409179688	8.48735046386719	0.0281691399850806	-0.902030579877987	0.430752054571401	0.974821977023594	-0.0705678779858423	-0.211523728475997	0.221198129884303	0.425865010961874	0.877331396778965
4	0.0001	0.973575439453125	0.456251220703125	9.53816528320313	0.0288399108750448	-0.903793909063253	0.426995116460229	0.974255930058222	-0.0701369679669134	-0.214257295023525	0.22359258101983	0.422181685610085	0.878503831550164
5	0.0001	0.27063720703125	0.65863037109375	8.85079467773438	0.0293185747862247	-0.905868144546978	0.422543874488224	0.973878681220647	-0.0693380482156484	-0.216223378323384	0.225168238071975	0.417845832532358	0.880172781219064
6	0.0001	0.468226318359375	0.476010131835938	9.23280029296875	0.0309317102052017	-0.907697976003042	0.418482512972481	0.973007346476066	-0.0684502170429449	-0.220388909635622	0.228691786051414	0.414003565379279	0.881079516755361
7	0.0001	1.22205871582031	0.90292236328125	8.94479919433594	0.0303781747220543	-0.909298586940055	0.415034030278694	0.972391411851642	-0.0692301359835243	-0.222850017789707	0.231370068629731	0.410345303446405	0.882091051582404
8	0.0001	0.41912841796875	0.250279541015625	8.84420837402344	0.0307460960878232	-0.911313558740701	0.410563363234857	0.971685927100803	-0.069020797381268	-0.225970326819932	0.234267233410076	0.405886347619888	0.883388440136148
9	0.0001	0.660426635742188	0.4454736328125	9.31423095703125	0.0302745800891044	-0.913497214856729	0.405717005127252	0.971440294512252	-0.0686804569359231	-0.227127164894519	0.235344861848262	0.401006026493457	0.88532873144248
10	0.0001	0.285606079101562	0.1916015625	8.86875732421875	0.0306201211610598	-0.915380058234392	0.401424659390629	0.970992157528788	-0.0680427192060968	-0.229225693107536	0.237142653686915	0.396799114603147	0.886743381397621
11	0.0001	0.5412744140625	0.188009033203125	8.90408386230469	0.030709740904268	-0.917206863050666	0.397225983775418	0.97037151723691	-0.0679298753381392	-0.231872056470552	0.239658153103396	0.392577511339227	0.887945306447288
12	0.0001	0.352666625976563	0.210162963867188	8.87773864746094	0.0310958848270176	-0.91873412704022	0.393650415671659	0.969843229841708	-0.0675181591735691	-0.234190964198058	0.241737782477271	0.389061565813764	0.888928536233096
13	0.0001	0.473016357421875	0.183817749023438	9.00706970214844	0.0311635790347061	-0.920408956845311	0.389712950132113	0.969348885646191	-0.0672357817262427	-0.236309304836161	0.243703855608065	0.385132057630352	0.890102089058988
14	0.0001	0.462837524414063	0.125738525390625	8.9909033203125	0.0316639198003447	-0.921892651412976	0.386149369355474	0.968745741792442	-0.0667915786036153	-0.238894480444083	0.246026591940564	0.381644892928479	0.890964697257821
15	0.0001	0.547860717773437	0.195792846679688	9.01245849609375	0.0323956961000476	-0.92329252482233	0.382728928200365	0.96812246781629	-0.0661719532792388	-0.241578475673034	0.248373521502373	0.378354577356238	0.891716551158547
16	0.0001	0.471220092773438	0.076640625	8.99030456542969	0.0328995871440003	-0.924417793746251	0.379959681770406	0.967585461577511	-0.0657828023538277	-0.243825752245969	0.250391676598064	0.37566523065063	0.892288990613815
17	0.0001	0.61072998046875	0.276624755859375	8.95018798828125	0.0334535013916522	-0.925569656691135	0.377096372108367	0.967141113601679	-0.0651662673674987	-0.245746666261603	0.252029620532871	0.372926491697816	0.892976428672121
18	0.0001	0.494571533203125	0.161663818359375	9.0867041015625	0.0343111327830712	-0.926493026129337	0.374744471207844	0.966862163244429	-0.0641438181622183	-0.247109546310692	0.252982812565294	0.370804858551336	0.893590204412111
19	0.0001	0.590971069335938	0.142503662109375	9.02443359375	0.0345543324693081	-0.92768462341576	0.371762340192711	0.966475626314248	-0.0636798953091003	-0.248736275347817	0.254422604829216	0.367894156533346	0.894384161163722
20	0.0001	0.39996826171875	0.195792846679688	9.13340698242188	0.0349452033308198	-0.928671599880809	0.369253154812503	0.966221982497317	-0.0630022762715532	-0.249891563930351	0.255330987745557	0.365513026798528	0.895101286971177
21	0.0001	0.556243286132812	0.266445922851562	9.09867919921875	0.035422524180099	-0.929608509719947	0.366842286871305	0.965675800909226	-0.0626770473973839	-0.252075058797714	0.257323711148108	0.363179854047282	0.895480262928871
22	0.0001	0.558638305664062	0.470022583007813	9.14119079589844	0.0355181373515168	-0.930655642416238	0.364168281372634	0.965483175495923	-0.0621313869055569	-0.252946493542608	0.258032361833526	0.360582537014775	0.896325573799276
23	0.0001	0.441282348632813	0.290396118164063	8.90887390136719	0.0362041593929595	-0.931553951649407	0.36179620507825	0.965043533146742	-0.0614473468828342	-0.254784620204428	0.259577036685265	0.358373351028553	0.896765467275732
24	0.0001	0.571212158203125	0.320333862304688	9.22681274414063	0.0359619920239217	-0.932668896732096	0.358936574060385	0.964834890366629	-0.0611796645403084	-0.255637796458097	0.260385040777859	0.355507774479364	0.897671350118652
25	0.0001	0.4933740234375	0.328716430664063	9.00946472167969	0.0360229511286876	-0.933705072604322	0.356226310629826	0.964636523813818	-0.0606477824860586	-0.25651164379793	0.261110558799089	0.352869216385449	0.898501303399804
26	0.0001	0.576002197265625	0.340691528320313	9.0675439453125	0.0359642071930562	-0.934780336731921	0.353401043943467	0.964504189901669	-0.0601046288058297	-0.257136347602278	0.261607040163488	0.350104492481131	0.899437936091996
27	0.0001	0.492775268554688	0.290396118164063	8.9813232421875	0.0357872108517172	-0.935853183121441	0.350568246110398	0.964356659945035	-0.0596887022484903	-0.257785746781211	0.262174575348393	0.347298255776439	0.900360157701091
28	0.0001	0.437091064453125	0.248483276367188	9.07472900390625	0.0357684255004276	-0.936851400880298	0.347893765977266	0.964137023300872	-0.0592582574132535	-0.258704965605375	0.262983687778832	0.344670729243098	0.901133546354411
29	0.0001	0.428109741210938	0.26584716796875	9.04718627929688	0.0354004978009677	-0.937879883482011	0.345149429834693	0.963944148469511	-0.0590992650126196	-0.259458966902971	0.263739423270076	0.34188974982403	0.901971682248633
30	0.0001	0.410745849609375	0.271834716796875	9.1537646484375	0.0350970807594302	-0.938871873910359	0.342473063615546	0.963865994282691	-0.058746667462046	-0.259829124863905	0.264065408540394	0.339217383755838	0.902884835718398
31	0.0001	0.161065063476563	0.253273315429688	8.93102783203125	0.0339885348676849	-0.940079144607136	0.339257986453177	0.964118217113076	-0.0585849893622058	-0.258928295966534	0.263288516514205	0.335885398456298	0.904356210890157
32	0.0001	0.410147094726563	0.228724365234375	9.00108215332031	0.0333135896251079	-0.941330718757623	0.335837286002533	0.9641445299144	-0.0582486466904377	-0.258906200379352	0.263278427111738	0.332420777151473	0.90563839181849
33	0.0001	0.996926879882813	0.125738525390625	9.16094970703125	0.0343427527167617	-0.942893231881369	0.331319979186499	0.963192459702234	-0.0572110124216474	-0.262654117863115	0.266609941503681	0.328145171120949	0.906222867600132
34	0.0001	0.546663208007813	0.152083740234375	9.83814147949219	0.0331236081810784	-0.944366133158255	0.327223827257112	0.96289650379258	-0.0575834975354601	-0.263655957254167	0.26783044928666	0.323815915846194	0.907419474708141
35	0.0001	0.181422729492188	-0.173638916015625	8.72385864257813	0.0317804609702637	-0.945862360425681	0.323008355047477	0.962909950971299	-0.057661637800036	-0.263589760511799	0.267944823836863	0.319404963418192	0.908947765673505
36	0.0001	0.10298583984375	-0.107177124023438	9.08430908203125	0.0312115821523922	-0.947079033046552	0.319479486513851	0.962497216845373	-0.0577015286950266	-0.265084215205599	0.269490156971374	0.315771814368962	0.90975997743673
37	0.0001	0.0377215576171875	-0.092208251953125	9.23459655761719	0.0303782569498647	-0.948621869889655	0.31495032857856	0.962406252615078	-0.0573270005497225	-0.265495423567665	0.269909922811463	0.311175453683331	0.911218124596347
38	0.0001	0.323926391601563	-0.131127319335938	9.02503234863281	0.02874788220567	-0.949976689537458	0.310994933405902	0.962281322753591	-0.0579025814463709	-0.265823149747057	0.270533205260073	0.306906468483965	0.912480248802358
39	0.0001	-0.0125738525390625	-0.424517211914062	9.63636108398438	0.027782826405527	-0.951671021927804	0.305860066991115	0.962081135519926	-0.0576004693982752	-0.266612217652882	0.271344805061033	0.301669441521655	0.913984433575541
40	0.0001	0.179027709960938	-0.341889038085938	9.80281494140625	0.0269715859858389	-0.952996658415568	0.301777902766536	0.961112206195541	-0.0582781285883919	-0.269938857577368	0.274837880670311	0.297323105017076	0.91436486731045
41	0.0001	0.299976196289063	-0.532293090820313	10.3009790039063	0.0260113906184501	-0.955231122463064	0.294714964391103	0.960462668137835	-0.0578669886679922	-0.272328615345596	0.277191036420093	0.290146367029562	0.915958631723017
42	0.0001	0.241298217773438	-0.508941650390625	9.8483203125	0.0241119823132666	-0.957154888420953	0.288570843781555	0.959677018522498	-0.0587055803823005	-0.274906665891802	0.28006897798345	0.283563351658586	0.917144041668186
43	0.0001	0.14609619140625	-0.96040283203125	10.0650695800781	0.0232101054619829	-0.959520120384417	0.280682079196228	0.958775724365406	-0.0581720715968777	-0.278145861831018	0.28321440883549	0.275566958584664	0.918614418548045
44	0.0001	0.602347412109375	-1.0490185546875	9.40045166015625	0.0217520453677469	-0.961839814017824	0.272747173573765	0.957288902197566	-0.0586361160179071	-0.283124996472782	0.288313728864406	0.267256390135937	0.919483124195224
45	0.0001	-0.0137713623046875	-1.35797607421875	9.54714660644531	0.021539338901364	-0.964567543151311	0.262955341415107	0.956888936990946	-0.0563118079688503	-0.284943051411359	0.289654309728043	0.257756542074731	0.921771091906037
46	0.0001	1.12745544433594	-1.23223754882812	8.72325988769531	0.0181189928062813	-0.967232408712645	0.253245275643242	0.956036619495075	-0.0573856348105985	-0.287577591445882	0.292687007371554	0.247322373539719	0.923669832387398
47	0.0001	0.180225219726562	-2.08606201171875	9.56451049804688	0.0164959842635781	-0.969819556226684	0.243265104080822	0.953858144007048	-0.0576876388320534	-0.294663838021248	0.299804142090475	0.236901170715258	0.924118667541747
48	0.0001	0.968186645507813	-2.05313049316406	7.99218017578125	0.0144501953500193	-0.972186501349467	0.233761841300562	0.952097554551142	-0.0580400002574888	-0.300235915552831	0.305452841650037	0.226902545080467	0.924777701160622
49	0.0001	0.555045776367188	-2.95126281738281	9.1441845703125	0.0105867651612527	-0.974900380306466	0.222389678001766	0.949773320510742	-0.0597585520953862	-0.307180004390688	0.312759588261368	0.214471825491769	0.925301721613446
50	0.0001	0.343685302734375	-3.094365234375	8.71068603515625	0.00747958197006876	-0.977808691097484	0.209366232873828	0.949777446181259	-0.0585544439003496	-0.30739905631756	0.312836792239913	0.201150542414744	0.928262678721544
51	0.0001	1.18673217773438	-3.54642517089844	7.41258544921875	0.00410381191551616	-0.979918417853244	0.199356597783363	0.946433137469493	-0.060562050325393	-0.317169598732343	0.322873775688601	0.189979294693869	0.927178727409234
52	0.0001	0.076640625	-4.01105895996094	8.98311950683594	0.000547704943158284	-0.982655501624468	0.185439653651695	0.947093983106088	-0.0590082369166293	-0.315485364383573	0.320955896009935	0.175801573096364	0.930634793951583
53	0.0001	1.08015380859375	-4.12841491699219	8.50830688476563	-0.00292735532864846	-0.985214454180718	0.171300641750608	0.946646820786206	-0.0579339650987769	-0.317022794737701	0.322259565080928	0.161233169544372	0.932819724144236
54	0.0001	0.727487182617188	-4.301455078125	8.28078002929688	-0.00704492381351795	-0.987937661830239	0.154691775430572	0.947820260236937	-0.0559040515590056	-0.313865403164593	0.318727349521259	0.144408840992125	0.936781171517909
55	0.0001	0.762214965820313	-4.80381042480469	6.64617919921875	-0.0098629878300071	-0.990436262253141	0.137618065257049	0.949090313361242	-0.0526054576262518	-0.310580493450237	0.314849644362075	0.127548721051843	0.94053230949453
56	0.0001	0.504151611328125	-5.010380859375	7.35390747070313	-0.00986482864474413	-0.992805004808043	0.119335273846051	0.949154067603929	-0.0468501527068497	-0.31130631079736	0.314657339190948	0.110196577167565	0.942787077379525
57	0.0001	0.303568725585938	-5.70074523925781	6.08574462890625	-0.00983587011248004	-0.994857708297948	0.10080374943069	0.949057281342008	-0.041038917812392	-0.312419724019635	0.314950047453319	0.0925956125577379	0.94458060542455
58	0.0001	0.47660888671875	-6.59049499511719	5.62709838867188	-0.00892057147803159	-0.996635635989764	0.0814728941414509	0.948063259511876	-0.0343363997725268	-0.316223129474077	0.317956725621936	0.0744205665521295	0.945179929910617
59	0.0001	0.759819946289063	-6.98088317871094	4.87266723632812	-0.00835038477608833	-0.998315852303186	0.057408449850659	0.946739601522568	-0.0263734799235959	-0.320918317435463	0.321891904189869	0.0516710615033602	0.945365380908428
60	0.0001	0.699944458007813	-7.25451416015625	3.72724914550781	-0.00582935033657063	-0.999444572485355	0.0328110530800217	0.944332773078823	-0.016295215982993	-0.328588008949395	0.32894016532481	0.0290690981221311	0.943903255196449
61	0.0001	1.27534790039062	-8.05445068359375	3.43026672363281	-0.0057555833524018	-0.999967563350365	0.00563431516758606	0.940492566847711	-0.00732749650736107	-0.339735249126638	0.339765514678105	0.0033436569902946	0.940504234436748
62	0.0001	0.709524536132813	-8.24545349121094	1.31785949707031	-0.0077516371403705	-0.999772538692523	-0.0198691468853469	0.935858329371066	-0.000253073410061304	-0.352376394357861	0.35229121400972	-0.0213262005560433	0.935647419545099
63	0.0001	1.38312377929688	-8.73463623046875	0.0425115966796875	-0.0118108093083191	-0.999053424716606	-0.0418659688231706	0.930264578580925	0.00437605123540096	-0.366863277002808	0.366699220917002	-0.0432793800510742	0.929332328417159
64	0.0001	0.818497924804688	-8.89570129394531	0.213755493164063	-0.0148213650312779	-0.997665591276049	-0.066661046514602	0.924066834323854	0.0117993833367669	-0.382048766855181	0.381943468122315	-0.0672617464587737	0.921734801676716
65	0.0001	0.41912841796875	-9.13340698242188	-3.35242858886719	-0.0159510959806253	-0.995967659716121	-0.0882835394431547	0.916353402392831	0.020765433358611	-0.399831512890757	0.400052502129532	-0.0872766725822157	0.91232712223351
66	0.0001	0.28500732421875	-9.05197631835938	-1.67830993652344	-0.0147684069344871	-0.993669427993452	-0.111368586359811	0.910167712114306	0.0327544999696468	-0.412942948306842	0.413976605596532	-0.107462600949836	0.903922098090245
67	0.0001	1.24121887207031	-8.63404541015625	-2.289638671875	-0.0100759474068106	-0.99065375553883	-0.136027982123779	0.904951869950514	0.0488375048015735	-0.422702035951833	0.425394626619711	-0.127357900271511	0.896001884418503
68	0.0001	2.02918029785156	-8.63105163574219	-4.27031982421875	-0.00504910476690636	-0.986970836526275	-0.160820006179823	0.89404508651608	0.06758549711521	-0.442849391843486	0.447948534786652	-0.146016329313935	0.882055180675323
69	0.0001	0.875978393554688	-8.3107177734375	-3.97692993164063	0.00185885368955508	-0.98201594250706	-0.188788859112321	0.885075810901114	0.0894864346913172	-0.456763600743287	0.46544317979824	-0.166243395863438	0.869324898821549
70	0.0001	1.44898681640625	-7.88979309082031	-6.27435241699219	0.0116874609634823	-0.976284471916478	-0.216175931016825	0.873630775248592	0.115142680533824	-0.472769956382626	0.486449043369161	-0.183332465794386	0.854257885647525
71	0.0001	1.61544067382813	-6.94376037597656	-9.65492248535156	0.0238980115142606	-0.971248091041406	-0.236867116109625	0.858235098648708	0.141442983545115	-0.493382607976102	0.512700107756092	-0.19149680951463	0.836939407276662
72	0.0001	2.07708068847656	-6.06239318847656	-9.28489196777344	0.0321135147867679	-0.966635221949616	-0.254135927909567	0.845648315098693	0.161814435726549	-0.508620699108128	0.532773544143084	-0.198576020901104	0.822629877031161
73	0.0001	1.91242309570313	-5.62889465332031	-9.6040283203125	0.0417947099184209	-0.962518151331237	-0.267977630746923	0.830967313140298	0.182407260864421	-0.525567232308422	0.55474906643926	-0.200714721786516	0.807444780615326
74	0.0001	1.91421936035156	-4.85530334472656	-11.7954711914062	0.0524310560331844	-0.959784843843629	-0.275797095509193	0.815675267658152	0.200492760134207	-0.542656899766851	0.57612918871903	-0.196508795380333	0.793384806537234
75	0.0001	1.99864379882813	-4.70800964355469	-9.07592651367188	0.0609984567680823	-0.957152770162343	-0.283086140322105	0.803280190761062	0.215420834875288	-0.555279028086336	0.5924695126357	-0.193526325010806	0.78200219828657
76	0.0001	2.69918701171875	-4.35234924316406	-10.8452471923828	0.0655825967643125	-0.956279610148504	-0.285005666989055	0.792254841568259	0.223548322981667	-0.567766160759637	0.606655741762413	-0.188561540368948	0.772278030556604
77	0.0001	1.75016052246094	-4.1625439453125	-9.89202941894531	0.0718050305342646	-0.95604511437085	-0.284291710884438	0.77969715963395	0.231556049683308	-0.581768111118005	0.622026025861236	-0.179887562501383	0.762052549374771
78	0.0001	3.45960571289063	-4.905	-9.41901306152344	0.0743336850431278	-0.95690823243229	-0.280715403872358	0.771986577226573	0.233410819988474	-0.591232706888167	0.631277457105756	-0.172760017989176	0.756070597454014
79	0.0001	2.85426452636719	-5.23311767578125	-7.6688525390625	0.0758623882004432	-0.957929376863377	-0.276796327646643	0.763740133340672	0.234290439153209	-0.601505609987279	0.641050627315267	-0.165768812095456	0.749382942263276
80	0.0001	3.45780944824219	-5.88156921386719	-7.32277221679688	0.078293779347867	-0.959166961509262	-0.271788197066241	0.755400527234536	0.234985606442788	-0.611679497955015	0.650569079782626	-0.157418247715459	0.742953139650801
81	0.0001	4.38168823242188	-6.16418151855469	-7.44731323242188	0.0769658532119068	-0.960485041079615	-0.267478491287905	0.750556604252167	0.23240974216156	-0.618587500327847	0.656308647857713	-0.15314763338259	0.738786004967942
82	0.0001	3.26441162109375	-5.88935302734375	-6.95274169921875	0.075773174078738	-0.961907743111228	-0.262663129945366	0.74665006357926	0.229328385588908	-0.62443748615876	0.660887364569122	-0.148801832333638	0.735585417233806
83	0.0001	3.49253723144531	-6.67911071777344	-5.37981262207031	0.0769884326433865	-0.963491301852023	-0.256431847660562	0.742286656540745	0.22709975981717	-0.630425426686255	0.665645026091743	-0.141810473331412	0.732670791619841
84	0.0001	2.77702514648437	-7.30181579589844	-5.23910522460938	0.0762121211743663	-0.965123248805631	-0.250457236271919	0.742599383439017	0.222564555045436	-0.631673313155953	0.665385503525659	-0.137848226148513	0.733662046343964
85	0.0001	5.49896484375	-6.57971740722656	-6.40068969726563	0.0787178570401582	-0.966516848506699	-0.244230793586077	0.733719400052857	0.222024527022659	-0.642153370610511	0.674877278450743	-0.128647934118836	0.726629457204891
86	0.0001	3.26321411132812	-7.47605346679688	-4.36791687011719	0.0773063180476846	-0.968064862234448	-0.238483030207414	0.730008784141048	0.217876395726909	-0.647778551097488	0.679051476890243	-0.124017332224376	0.723539074992588
87	0.0001	3.44044555664063	-6.60905639648437	-6.62163024902344	0.0762053357776506	-0.970181706646768	-0.230087380981618	0.731811206911716	0.211154103695672	-0.647970911330821	0.677233419315256	-0.119001683099198	0.726080915037797
88	0.0001	1.829794921875	-5.88935302734375	-8.1478564453125	0.0790054443142999	-0.973900298193652	-0.2127823981137	0.725600270557904	0.202545228430046	-0.657631871039199	0.683565934738557	-0.102438467474564	0.722664495631594
89	0.0001	2.55189331054688	-8.04606811523437	-2.43573486328125	0.0794145347210533	-0.97993746183888	-0.18280017111538	0.745642466603498	0.180102749850231	-0.641545252880759	0.661597040253726	-0.0853555527259875	0.744985762244052
90	0.0001	5.47321838378906	-7.48623229980469	1.62921203613281	0.0825293598082542	-0.984178214465624	-0.156786947610115	0.750276045433664	0.16490824474963	-0.640227402148658	0.655953321828667	-0.0647959333975014	0.752015110617522
91	0.0001	7.37785766601563	-8.56758361816406	4.09308837890625	0.078267333439712	-0.986930425516782	-0.140863620944159	0.765895956632964	0.149976682399976	-0.625228260997193	0.63818305221113	-0.0589519289384116	0.767624297390935
92	0.0001	2.64529907226563	-7.09943664550781	3.48774719238281	0.0743225553307164	-0.990512329868142	-0.115591877518697	0.781742624765949	0.129836510490679	-0.609935200794026	0.619156382825177	-0.0450311550239252	0.783975489849048
93	0.0001	6.22166198730469	-5.91689575195312	0.640667724609375	0.0729511666775113	-0.994134560700935	-0.0798411078351837	0.786486479497692	0.106570999526408	-0.608343356688695	0.613283902322339	-0.0184145942095356	0.789647869542103
94	0.0001	2.05432800292969	-6.83598449707031	9.70102661132812	0.0648667979270865	-0.996439354784489	-0.0538601036330103	0.800098688771425	0.0841888052705584	-0.593931253002704	0.596350892304969	-0.00456697972275683	0.802710879422522
95	0.0001	4.95828918457031	-4.54035827636719	3.98710876464844	0.0480764331696447	-0.99842880327034	-0.0287850894360533	0.822760431365118	0.0559249756551125	-0.565630329524381	0.566351418426377	0.00351025613481221	0.824156386220661
96	0.0001	-0.331111450195313	-5.03492980957031	11.9122283935547	0.0511067352634041	-0.998692452843349	0.00121911625817323	0.816158944844314	0.0410622520539861	-0.576366609205349	0.575562923025218	0.0304512083502367	0.81719033618165
97	0.0001	3.89310424804688	-1.56813903808594	5.55884033203125	0.0501640070084095	-0.998459508258742	0.0237103936823344	0.814793080425169	0.0271841370225083	-0.579114201851073	0.577577534615158	0.0483697535868495	0.814901563654055
98	0.0001	1.71663024902344	-1.51065856933594	11.5038775634766	0.0587776772121893	-0.997461516250048	0.0401958736899161	0.80263439334417	0.0232786581075393	-0.596016891285599	0.593568206091412	0.0672950791430419	0.801965184431691
99	0.0001	1.82141235351563	0.180225219726562	6.44559631347656	0.0583229971431812	-0.996396048923256	0.0615901103616537	0.807102769670999	0.0107539647289446	-0.590313028343447	0.587523231194851	0.0841383737228907	0.804821214229365
100	0.0001	4.30325134277344	0.973575439453125	10.3087628173828	0.0555028260612308	-0.995441116582094	0.0775655833279882	0.811476507596356	-0.000290244838932058	-0.584384970184172	0.581743340244165	0.0953776660215996	0.807760971393044
101	0.0001	1.64537841796875	1.44719055175781	6.55516845703125	0.0551145755793177	-0.993648862113632	0.0981036308145421	0.813677328749052	-0.0122489397818526	-0.581187721957397	0.57869818406361	0.111856614889352	0.807834456721782
102	0.0001	1.13823303222656	2.68122436523438	11.2033026123047	0.0624368539284963	-0.991219481348987	0.11655719225237	0.820974959768637	-0.0154019094630452	-0.570756424946559	0.567540090834468	0.131326771753273	0.81280472705101
103	0.0001	-1.54658386230469	3.66857116699219	7.21200256347656	0.0641895029779176	-0.987448430466065	0.144309753230861	0.836896849143716	-0.0255038077984098	-0.546766147160834	0.543583822055779	0.155869025011019	0.824755403402333
104	0.0001	-1.59867553710938	4.72716979980469	9.4986474609375	0.0830208567320128	-0.982377543942703	0.167457154235304	0.845602939952517	-0.0194716730060658	-0.533457141571846	0.527316987485841	0.185890330860561	0.829084784326313
105	0.0001	0.235909423828125	6.20190307617188	11.1649822998047	0.0996271852977304	-0.977289135391141	0.187030398053601	0.850379898793612	-0.0139712810565911	-0.525983679436353	0.516651189563537	0.211449164462938	0.829675116639344
106	0.0001	-2.72912475585938	6.89765625	8.3011376953125	0.112859405835647	-0.973122117237536	0.200738883770831	0.858426835201796	-0.00624488089310231	-0.51289801137074	0.50036598917178	0.230205009514923	0.834649345817979
107	0.0001	-5.27562927246094	7.29702575683594	9.50044372558594	0.1359347171623	-0.968539536960696	0.20845363516611	0.865124599032256	0.0135121326560153	-0.501374959905622	0.482784818339686	0.248492630906928	0.839744146490865
108	0.0001	-3.22190002441406	6.2126806640625	11.0763665771484	0.158298303147539	-0.965679938701586	0.205922080433135	0.872893586831857	0.0393855984918095	-0.486318373803888	0.461517533023856	0.256731436759783	0.849170498834499
109	0.0001	-2.53752319335937	6.27554992675781	6.22944580078125	0.177597599684089	-0.963001650069283	0.20269907387625	0.879972825732838	0.0631876358838315	-0.470802664226933	0.440575667233468	0.26198309990389	0.858637255659532
110	0.0001	-2.87342468261719	5.14390319824219	3.95776977539063	0.195491705365542	-0.960134872685749	0.199809958175244	0.881690277842807	0.0828550751010105	-0.464496814292068	0.429424320562712	0.266975771902108	0.862739062594553
111	0.0001	-3.93920837402344	3.71287902832031	7.37845642089844	0.208234040460951	-0.959207871860846	0.191203668776239	0.879992930833643	0.0984102519741365	-0.46468038907318	0.426908685875706	0.265020151812223	0.864588510828882
112	0.0001	-4.94451782226563	2.22377563476563	8.48076416015625	0.223363529976384	-0.960101523383189	0.168267044526757	0.876410734092993	0.122259702808109	-0.46578620657535	0.42662976764763	0.251510695332333	0.868751639705144
113	0.0001	-5.46962585449219	2.08426574707031	6.59408752441406	0.236943632788816	-0.961026270311734	0.142429711266846	0.871545305405915	0.145486961588257	-0.468233194714694	0.429262734820704	0.235078820352952	0.872050143464076
114	0.0001	-4.3541455078125	2.15012878417969	8.91246643066406	0.254668842088227	-0.961604043046833	0.1022812068047	0.859876644793746	0.176787871424316	-0.478913566581184	0.442443145056732	0.209913584394254	0.871883220666084
115	0.0001	-3.1278955078125	1.48251708984375	9.90939331054688	0.268652178042015	-0.961476264607598	0.058218552279328	0.852047184733479	0.20901586790767	-0.479924954498676	0.449267851310366	0.178537837891645	0.875375712605704
116	0.0001	-2.58542358398438	-1.83757873535156	4.68645446777344	0.276156244949095	-0.960847872464481	0.0225631193786798	0.846850349936957	0.232156311130678	-0.478485038443052	0.454513160631537	0.151244217022261	0.877805772155808
117	0.0001	-1.88368286132813	-5.09121276855469	5.80552734375	0.285632889075081	-0.958213882540274	-0.0154921911206115	0.837494756000629	0.257440778122758	-0.482002883218551	0.46585017586137	0.124701247253762	0.876032654975422
118	0.0001	-1.60586059570313	-5.49297729492188	5.08402770996094	0.292410868362044	-0.954886243462856	-0.0518473346388363	0.82794452011309	0.2799237693004	-0.485953243630868	0.478543368649552	0.0991712933567598	0.872445585062752
119	0.0001	-0.37122802734375	-6.53121826171875	5.27622802734375	0.296366008400393	-0.950888679756792	-0.0893191344293248	0.818031063415523	0.300996819021691	-0.490128650688871	0.492942560905516	0.0721916452867563	0.867061703685905
120	0.0001	-0.872385864257813	-7.386240234375	3.73503295898438	0.297346618761042	-0.946160360592974	-0.127927949854396	0.808151871264824	0.320762951516372	-0.493965263865456	0.508404898956078	0.0434936889338967	0.860019044987018
121	0.0001	-0.144299926757813	-8.12151123046875	0.698746948242188	0.295954853946706	-0.940636544916438	-0.166173447918283	0.798407525590392	0.339102306898018	-0.49754904133871	0.524362610705618	0.014577922489461	0.851370270017623
122	0.0001	0.201181640625	-8.22509582519531	-0.31853759765625	0.293913823669391	-0.933767189246434	-0.20418986395718	0.786368683416445	0.357661711820506	-0.503688786493717	0.543358958698506	-0.0125274173092271	0.839406996526498
123	0.0001	-0.178428955078125	-8.2915576171875	-1.7196240234375	0.29845016419988	-0.925852945514412	-0.231784000248836	0.790405029284391	0.375882572559983	-0.483706710029569	0.534964848537739	-0.0388408924714258	0.843981040012759
124	0.0001	1.23463256835938	-10.1818267822266	0.120948486328125	0.304682433432049	-0.913171016920603	-0.270716288047317	0.78637465876299	0.401545953284417	-0.469441948973779	0.537385811883154	-0.0698537132663781	0.84043854500468
125	0.0001	0.325123901367187	-6.61384643554688	-7.05692504882813	0.298202701408546	-0.901874204845276	-0.312566900850597	0.767092145926734	0.42131156522806	-0.483803890706349	0.568018299467688	-0.0954959875585548	0.8174568660364
126	0.0001	0.195194091796875	-7.56407043457031	-4.21104309082031	0.293668081078036	-0.887604646138628	-0.354847925609078	0.738544621965395	0.446356410893525	-0.505289813691353	0.606886232766847	-0.113683537099144	0.786616268501162
127	0.0001	0.678389282226563	-7.84069519042969	-4.09009460449219	0.302908312429719	-0.871066679521554	-0.386638583289709	0.727832479895538	0.47334306530193	-0.496191720748831	0.615228766777117	-0.13110752212542	0.777370170621462
128	0.0001	0.56761962890625	-5.17623596191406	-10.5722149658203	0.309385383923819	-0.852930150063473	-0.420465032228618	0.706936939638734	0.502027097730196	-0.498205737139604	0.636019533967732	-0.143104689850815	0.758287676382895
129	0.0001	0.84544189453125	-4.67208435058594	-12.6241479492188	0.315015120343465	-0.841193312954631	-0.43949890124482	0.686910262085454	0.521622868058881	-0.506027544072178	0.654919663620421	-0.142489977747343	0.742143409621669
130	0.0001	1.21367614746094	-3.755390625	-12.8402984619141	0.31771028161971	-0.836058824172817	-0.447287177857683	0.671243230009386	0.531493968100689	-0.516668837882788	0.669695978127158	-0.136087488019105	0.730059923900058
131	0.0001	0.221539306640625	-4.13500122070313	-11.5146551513672	0.321648286804416	-0.832737182154291	-0.450656371366826	0.651900425675161	0.539941000579188	-0.532437368051953	0.686708245618421	-0.122525513062695	0.716532821333674
132	0.0001	1.37234619140625	-5.79714477539062	-8.57536743164063	0.329093095129656	-0.831460214874567	-0.447628915306778	0.63860200576567	0.545160366223354	-0.543127658411245	0.695618582967739	-0.107117160996541	0.710380673195714
133	0.0001	2.18545532226562	-5.49297729492188	-9.33877990722656	0.333192080437817	-0.83186199027094	-0.443834053082894	0.622251588289867	0.547667872084718	-0.559341454531072	0.708368547017905	-0.0898083015576376	0.700106042372922
134	0.0001	1.810634765625	-6.60247009277344	-5.99473388671875	0.341339100365775	-0.833229591969423	-0.434989730485621	0.614144845857908	0.548045475488777	-0.567866414839307	0.711557254806421	-0.0733116898096782	0.698793008887181
135	0.0001	3.55480773925781	-7.36767883300781	-5.76720703125	0.346433331891309	-0.833890099660267	-0.429664110955612	0.609974560721762	0.548223184127549	-0.57217337901841	0.712681543066032	-0.0638642472251985	0.698574531527867
136	0.0001	3.86137023925781	-7.72393798828125	-3.22309753417969	0.353092556340834	-0.834897260028431	-0.422222940937267	0.601640481411612	0.548228747915001	-0.580925099377153	0.716487528002756	-0.048906085066892	0.695883479513583
137	0.0001	4.94571533203125	-8.07840087890625	-4.56849975585938	0.354232635049879	-0.836376137447528	-0.41832307726681	0.601098242410425	0.546319199221075	-0.583280580452959	0.716379887515497	-0.0448362495175247	0.69626831573215
138	0.0001	3.30572570800781	-7.29283447265625	-6.11927490234375	0.356263651515424	-0.839790281601926	-0.409668760751727	0.600566096108455	0.541682410537177	-0.588133088951543	0.7158188142358	-0.0365027264953314	0.69733132451114
139	0.0001	1.98427368164063	-7.28205688476563	-3.24884399414063	0.36012123677191	-0.851386103330934	-0.381384842227424	0.619722129808366	0.523899059342951	-0.58435798740614	0.697321429938628	-0.0259129055595633	0.716289986439716
140	0.0001	3.67875	-6.3228515625	-1.97708862304688	0.362674868661762	-0.858277567345946	-0.363079271002766	0.621272412627405	0.513072691382688	-0.59226430136	0.69461322255576	-0.0107717569620998	0.719302745930149
141	0.0001	3.92124572753906	-7.85326904296875	-3.93381958007813	0.359305734625179	-0.871754263897491	-0.333082410886562	0.631307945061102	0.489909786866632	-0.601197703950223	0.687276994790448	0.00573621032001304	0.726372788809558
142	0.0001	2.67523681640625	-5.80911987304688	-2.38783447265625	0.355083248908399	-0.884136181624859	-0.303675976472406	0.619944055039481	0.465845342913254	-0.631393288772724	0.699703690833384	0.0359350640440005	0.713528847494124
143	0.0001	4.08949584960938	-6.7779052734375	3.23148010253906	0.357543344738268	-0.895963719413682	-0.263461135896306	0.63123649070575	0.439761994244436	-0.638866090209558	0.688261032919096	0.0621160358728504	0.722798968353291
144	0.0001	3.02191589355469	-4.13979125976562	4.07452697753906	0.353515158742139	-0.905645077472944	-0.234166663273291	0.617537402165284	0.413976301780505	-0.668783356918433	0.702619804351168	0.0918183816736189	0.705616606465838
145	0.0001	6.236630859375	-6.08694213867188	8.39454345703125	0.351914202223594	-0.9161257200429	-0.192015778906866	0.634756990720056	0.384333780828869	-0.67035148067697	0.687924383203089	0.114022848542151	0.716769721043644
146	0.0001	1.80644348144531	-4.58825866699219	10.7189099121094	0.350625063563218	-0.924454109897797	-0.149822106160474	0.654739076726339	0.356357377777187	-0.666577947963558	0.669610936446554	0.135624547913858	0.730224058624702
147	0.0001	2.73630981445313	-0.776585083007813	5.68936889648438	0.348019442167966	-0.931498864963703	-0.105793820445392	0.666313095489836	0.32515580221265	-0.671044382337116	0.659476555043355	0.163044683626246	0.733830433062957
148	0.0001	1.70884643554688	1.27175537109375	9.50942504882813	0.35329613893226	-0.933004716912222	-0.0684400207123197	0.662143252546923	0.301069061358106	-0.686238831165602	0.660869239201023	0.19712843151736	0.724149314827658
149	0.0001	3.85059265136719	1.80883850097656	16.8818939208984	0.357703143591536	-0.932892265528391	-0.0419580979316164	0.666764465882581	0.286602327854862	-0.68795657763008	0.653814658830047	0.21810806171593	0.724537966785364
150	0.0001	-0.981359252929688	3.56977661132813	8.37538330078125	0.358684443208157	-0.933375791424705	-0.0124540026802792	0.672156730790767	0.267513167952029	-0.690392666694062	0.647727411380067	0.239262067521318	0.723327632260998
151	0.0001	2.49441284179687	2.90156616210938	17.6279425048828	0.363904894908521	-0.931411672343142	-0.00674715381251667	0.675273642109239	0.268806590128023	-0.686839519375719	0.64154402478251	0.245388087988591	0.726777786217467
152	0.0001	-0.05748046875	4.55592590332031	5.82109497070313	0.367880582960166	-0.929702268240185	0.0178204688474728	0.692911123928029	0.261301977649275	-0.672008519896418	0.620111321471947	0.259566887151719	0.740328967471004
153	0.0001	-1.97409484863281	4.67148559570313	7.04255493164063	0.377004470271296	-0.925459963946935	0.0373026075066978	0.699511938349698	0.258100061244098	-0.666383828204168	0.607083748342606	0.277323301431978	0.744675170111882
154	0.0001	-1.96511352539063	6.40488098144531	14.3581420898438	0.394540320764558	-0.91705033694702	0.0579362994706886	0.706089818248934	0.262222773198727	-0.657781411854391	0.588026448262479	0.30042952038927	0.750977362789643
155	0.0001	-2.58063354492187	6.73239990234375	8.16102905273438	0.410196998335314	-0.90884000243966	0.0758173629334158	0.71865277268642	0.270932725443317	-0.640416778819837	0.561494982049544	0.31718339844534	0.764276178409249
156	0.0001	-2.91533752441406	6.32943786621094	8.89570129394531	0.424797993445411	-0.901579142610408	0.0818639992587378	0.721793283028651	0.282726786398116	-0.631727805963705	0.546407468231791	0.327445589163873	0.770855540810112
157	0.0001	-5.06187377929688	6.15460144042969	8.3681982421875	0.44524837731784	-0.892148957551841	0.0763159225522092	0.714647318625905	0.302720475908571	-0.630586650228573	0.539474830253122	0.335306652192963	0.772357661008495
158	0.0001	-4.25894348144531	5.9061181640625	8.34305053710938	0.465917802359627	-0.88250699425359	0.0640469088861362	0.709889460098076	0.329612994997855	-0.622424475715894	0.528183259755586	0.335464869430522	0.780054975942033
159	0.0001	-3.12490173339844	4.91697509765625	5.5995556640625	0.482756308756474	-0.874227979510657	0.0516893238158268	0.704165737277583	0.352400646968542	-0.616412522958831	0.520669723337302	0.333974885069022	0.78572502527474
160	0.0001	-4.07871826171875	3.1470556640625	6.74796752929688	0.500054194133429	-0.865489072367822	0.0295714142619951	0.691522465718036	0.3785203446427	-0.615239000794666	0.521289250164259	0.328102140047057	0.787785823279225
161	0.0001	-4.00088012695312	2.05732177734375	6.87669982910156	0.514246847038128	-0.85762519985035	0.00540341493802893	0.680295704226391	0.404064320512126	-0.611497980127648	0.522252750229679	0.31813682822132	0.791227542118457
162	0.0001	-3.79251342773438	2.09085205078125	7.00064208984375	0.531826633312786	-0.846578132624045	-0.0215846580230644	0.665279106897812	0.433432432247644	-0.60789804786752	0.523988685015658	0.308936550182519	0.793721655202179
163	0.0001	-3.41469909667969	0.258063354492188	7.38683898925781	0.550511564710551	-0.833513678810187	-0.0468184189849453	0.65415929533229	0.465536857670452	-0.596113286616465	0.518664278170671	0.297540554188216	0.80153414472689
164	0.0001	-0.987945556640625	-2.3423291015625	6.23064331054688	0.568638101230261	-0.819254876244394	-0.0739740331401909	0.639482740345035	0.496835357011182	-0.586699627428188	0.517409445826076	0.286314644706403	0.806418867336696
165	0.0001	0.0017962646484375	-4.97445556640625	6.19591552734375	0.579317071159134	-0.808606719775149	-0.102698119739739	0.62893238024761	0.523584506080953	-0.574720215468397	0.518493772517741	0.26835505906623	0.811880391519516
166	0.0001	-2.0645068359375	-5.43310180664063	4.75830505371094	0.584274709446398	-0.800601196156697	-0.132893899836647	0.616878573725777	0.544526548628335	-0.568288362644322	0.527336599506784	0.250057118577693	0.812026814993965
167	0.0001	-1.12625793457031	-6.37614074707031	6.5384033203125	0.588426274723814	-0.790660537917608	-0.169146188235189	0.602854583123695	0.568430075940342	-0.55986927078847	0.538814319428699	0.22747123454691	0.811132521005226
168	0.0001	0.017962646484375	-7.03117858886719	6.2797412109375	0.589568349672854	-0.778748871550556	-0.214381333428922	0.587508173445307	0.595593513719615	-0.547816130239044	0.554295324893676	0.197024266205607	0.808664412056792
169	0.0001	-1.02866088867188	-7.01800598144531	3.12729675292969	0.589406060550997	-0.765374361177222	-0.258461956655743	0.577562334498046	0.622942215279768	-0.527602829969195	0.564820542787638	0.161694414482677	0.809217319865426
170	0.0001	-1.350791015625	-6.85274963378906	-0.200582885742188	0.588861055836904	-0.745235001535508	-0.312837736542473	0.552733983740692	0.653719206368213	-0.516852341044769	0.589684492026703	0.131438166875856	0.796866493304571
171	0.0001	-2.63991027832031	-6.62701904296875	-2.39501953125	0.589206354539198	-0.721097478374073	-0.364491835921166	0.524692569296787	0.684530954397235	-0.506078136453994	0.614437612370341	0.106938296014869	0.78168447685116
172	0.0001	2.97521301269531	-8.1478564453125	1.73040161132813	0.582645092006325	-0.69696616889407	-0.418046476098131	0.500914647505532	0.71301820853445	-0.490601213015962	0.640007197362147	0.0764407856804739	0.764557122528593
173	0.0001	1.13943054199219	-5.67559753417969	-6.66713562011719	0.572427046331433	-0.672845444327126	-0.468621686092848	0.480089996861759	0.738341417696831	-0.473672403488645	0.664711118864088	0.0461623110520489	0.745672964171819
174	0.0001	1.54119506835938	-4.85290832519531	-10.7350762939453	0.55844631371317	-0.654487184425478	-0.509690337482459	0.463257413783064	0.755742124599662	-0.462867594113713	0.688135366970191	0.0223688740977458	0.725237444011546
175	0.0001	1.10949279785156	-4.61939392089844	-14.0910974121094	0.547687621124799	-0.647368146398559	-0.530049764357228	0.455005893304262	0.762096561636682	-0.460628340204919	0.70214521769008	0.011104673342423	0.711947174658983
176	0.0001	-2.22856567382812	-4.4499462890625	-14.3677221679688	0.540634763363542	-0.640915018766297	-0.544923839965407	0.443918926082268	0.767569485528801	-0.462356001313941	0.714597816753461	0.00806372152600654	0.69948905401467
177	0.0001	-1.1256591796875	-5.0247509765625	-13.1738049316406	0.536236085984706	-0.636155995978105	-0.554757973235994	0.425267973257958	0.771351274321772	-0.473459990414446	0.729107681353634	0.0179655332034349	0.684163159347129
178	0.0001	-0.501756591796875	-5.65104858398437	-10.1363214111328	0.534686961155906	-0.632596784683235	-0.5602956019623	0.411142882679719	0.774006743905129	-0.481534100984751	0.738289498497489	0.0271084562049291	0.673938979441397
179	0.0001	-1.36396362304688	-5.61033325195313	-9.55972045898438	0.53753671611125	-0.630721573232318	-0.559682567078592	0.404158741959307	0.775230629799394	-0.485461823338052	0.740074313924084	0.0347529521074772	0.671626564535391
180	0.0001	-1.43102416992188	-5.04211486816406	-10.6458618164063	0.538915015627711	-0.629144800152488	-0.56013161522277	0.391880903379196	0.775868969471546	-0.494425626133867	0.745654050815584	0.0469485106499264	0.664677270447896
181	0.0001	-0.684376831054687	-6.03006042480469	-7.68322265625	0.544471332243359	-0.626192367746393	-0.55806279838501	0.377132014232994	0.77704331478248	-0.503959453520242	0.749214530161894	0.0639281278313606	0.659234997755938
182	0.0001	0.7616162109375	-6.49110168457031	-7.33235229492188	0.548538298183491	-0.623529631362757	-0.557060619895702	0.362007567349912	0.777666696888737	-0.513989328421867	0.75369506871636	0.080282671622129	0.652302411485543
183	0.0001	1.92619445800781	-6.82820068359375	-6.18034790039063	0.55125878697673	-0.621721672574192	-0.556395463346435	0.349957113533606	0.777675380846934	-0.522255704336299	0.757392743870821	0.0931834957281943	0.646276309062697
184	0.0001	2.35310668945313	-7.19643493652344	-6.44799133300781	0.551836226869252	-0.620403303689593	-0.557293925577649	0.339095829750517	0.777445278766667	-0.529710162984653	0.761899466439317	0.103337211567072	0.639398642276496
185	0.0001	2.2608984375	-7.84368896484375	-5.08402770996094	0.551847579475419	-0.619669006007038	-0.558099070077501	0.333055447054544	0.777304974906414	-0.53373312167509	0.764551056643321	0.108661395996871	0.635338006737825
186	0.0001	1.87709655761719	-7.42755432128906	-5.30317199707031	0.551447072866626	-0.61836850071062	-0.559934391831516	0.326355009051829	0.777634665475589	-0.537379507533968	0.76772295386657	0.113598962933511	0.630632017682912
187	0.0001	1.97948364257813	-7.47066467285156	-6.84257080078125	0.550823773560428	-0.617542187205371	-0.561457761102523	0.316728305896477	0.777051851468724	-0.54394264437804	0.772189323109688	0.121786974470319	0.623611723851282
188	0.0001	2.39262451171875	-8.15025146484375	-4.67687438964844	0.550108232832904	-0.613485868902248	-0.566582757262091	0.303471415570041	0.778941227264329	-0.548776515896824	0.778001305976652	0.129944807996296	0.614677407079055
189	0.0001	1.52562744140625	-7.58622436523438	-6.84616333007813	0.549875117324324	-0.609770497214099	-0.570804078537313	0.291278113609	0.780487255141052	-0.553169689240806	0.78281186493304	0.137911512534876	0.60678332115377
190	0.0001	2.3375390625	-7.49102233886719	-5.60614196777344	0.550888401240585	-0.611224937235835	-0.568265822903017	0.28605441285454	0.777942135085391	-0.559445178141012	0.78402477146136	0.145636913452032	0.603402889597928
191	0.0001	3.3338671875	-6.31027770996094	-7.03716613769531	0.550728973294582	-0.617773740108496	-0.561296003910821	0.280164488273547	0.770268264463599	-0.57288276311184	0.786260425994032	0.158247928241085	0.597287314215769
192	0.0001	2.81774047851563	-7.48024475097656	-3.15962951660156	0.554498126586442	-0.624766667159565	-0.549725785477138	0.284770927611696	0.763154603483067	-0.580086691770961	0.781944592921584	0.165111061982331	0.601083181275076
193	0.0001	2.76684631347656	-6.15100891113281	-6.54977966308594	0.551021508012696	-0.634945287241298	-0.541497719217247	0.269191738708965	0.749452442540875	-0.604861012283286	0.789880437482952	0.187524714583392	0.58388644093022
194	0.0001	3.62366455078125	-7.68921020507813	1.92739196777344	0.557406634929408	-0.643300256262361	-0.524845333054848	0.271315634248379	0.738594455379462	-0.617143465569487	0.78465640247759	0.201601117991683	0.586234866990552
195	0.0001	3.25782531738281	-6.37913452148438	-3.61228820800781	0.565515858636748	-0.657288587484939	-0.498160141312405	0.269112057449793	0.718024975247756	-0.641886933544841	0.779596379009986	0.228936339803259	0.582938794516204
196	0.0001	7.21918762207031	-4.3254052734375	0.10777587890625	0.572492057602274	-0.664144853334673	-0.480795650740915	0.243974516181565	0.697826656547813	-0.673434772539458	0.78277025967795	0.268234172320318	0.561534637723576
197	0.0001	5.64326477050781	-9.7285693359375	12.8169470214844	0.579446334743936	-0.688360212790792	-0.436350962641809	0.288132269636433	0.673838048280242	-0.680383773971743	0.762379000462352	0.268519090823146	0.588791777725823
198	0.0001	8.37957458496094	-3.05724243164063	-3.47217956542969	0.585712034035489	-0.703223206312291	-0.403011830210815	0.289831776364728	0.646067349317879	-0.706112258465066	0.756927311302265	0.296772812516966	0.582225852359283
199	0.0001	0.88855224609375	-3.57935668945313	15.4586535644531	0.599914939984196	-0.70971806389007	-0.369326866842759	0.290807021680373	0.623481088078447	-0.72574279806961	0.745341090323853	0.327981100974806	0.580426615928495
200	0.0001	6.08035583496094	2.05792053222656	4.94272155761719	0.610481837676926	-0.72537706399135	-0.318025220543737	0.318360784084326	0.592402156260248	-0.740071683295221	0.725229851167075	0.350553562659828	0.592582367846602
201	0.0001	6.85873718261719	-2.423759765625	19.6194012451172	0.614162978095101	-0.72596888888161	-0.309472145294786	0.309171361386126	0.582133447757583	-0.752019759248731	0.726097035964206	0.366182770454687	0.581973601623067
202	0.0001	2.09743835449219	1.86631896972656	4.828359375	0.623306482146589	-0.734676264252514	-0.267842894357893	0.343612600311884	0.565002896633254	-0.750134726367829	0.702438189608843	0.375529644022949	0.604613989450334
203	0.0001	-1.13703552246094	3.420087890625	8.4639990234375	0.629272862967852	-0.732678848731177	-0.25922455237535	0.331333010397418	0.554625023026143	-0.763288621724596	0.703017851944904	0.394427164955974	0.591771164717887
204	0.0001	1.67232238769531	4.84572326660156	12.8971801757813	0.635500746025144	-0.736033263552298	-0.233224863052892	0.351808207098485	0.544926240117389	-0.761108650752096	0.687291631856256	0.401634694437719	0.605243574938458
205	0.0001	-2.31897766113281	5.07744140625	7.78261596679688	0.641316424083207	-0.736259801685626	-0.215950801394604	0.359124177895336	0.536753152160382	-0.763495827425988	0.678043559848575	0.412089259830607	0.608637308156619
206	0.0001	1.00411193847656	4.67328186035156	15.280224609375	0.649778269592371	-0.729529687877253	-0.21348216522994	0.360541082137656	0.5430461095026	-0.758360765760663	0.669177352020041	0.415797255233616	0.61588498446028
207	0.0001	-0.688568115234375	6.48032409667969	5.96599365234375	0.657971796305922	-0.727566310154392	-0.194217351424331	0.375455065764143	0.540523056753327	-0.752906580333898	0.652768419010909	0.422471406661284	0.628817383423546
208	0.0001	-1.62741577148438	7.66585876464844	4.92056762695313	0.671186806960567	-0.719681497396837	-0.177670516593853	0.378365920054157	0.538705115542919	-0.752752302573338	0.637453920455158	0.438012945918882	0.633874718303083
209	0.0001	-5.28461059570312	7.73651184082031	4.70441711425781	0.68803084107098	-0.706860768988764	-0.164199314857808	0.364392819217958	0.532201338510994	-0.764185585175156	0.627559905536953	0.465950199647688	0.62374592296121
210	0.0001	-0.252075805664063	3.57935668945313	17.4854388427734	0.690331612189649	-0.703925160400748	-0.167127597261558	0.368751512204213	0.541078024157581	-0.755815383556616	0.622466535211932	0.46013469802712	0.633096732113461
211	0.0001	-2.90934997558594	5.9923388671875	5.87797668457031	0.690222094895238	-0.704631076676205	-0.16458586057302	0.386685161495486	0.551434704015446	-0.739184924823692	0.611611024751548	0.446558857251236	0.653082798282754
212	0.0001	-3.83742004394531	4.98343688964844	4.02542907714844	0.692044129936591	-0.702273623135868	-0.166993055148789	0.397722918851484	0.564011910748727	-0.723676063134484	0.602404682950392	0.434398806146139	0.669631447273982
213	0.0001	-4.15416137695312	4.72537353515625	8.90348510742188	0.701030105681349	-0.690054563414575	-0.179948577207815	0.396277342383088	0.586736575135744	-0.706190101397475	0.592892113998992	0.423750977472263	0.684772991763773
214	0.0001	-3.17759216308594	5.12174926757813	5.11157043457031	0.706718188723917	-0.681036475281765	-0.191673475114779	0.395527281170912	0.604944468264054	-0.691086362306671	0.586606828784266	0.412591213736442	0.696893764336543
215	0.0001	-3.8080810546875	1.94056457519531	12.0110229492188	0.710044004744788	-0.663321209595211	-0.236310144147752	0.3698219812715	0.636870149278261	-0.676482161720994	0.599223842561698	0.39293941754351	0.697516595247856
216	0.0001	-1.51784362792969	2.35789672851562	11.3811328125	0.705952765705703	-0.650268086293242	-0.280681507301414	0.356389108375086	0.668614199794893	-0.652642210758886	0.612060042825931	0.360702741576994	0.703758507014132
217	0.0001	-1.92439819335938	1.06278991699219	8.08199340820313	0.701268550718174	-0.632625795806704	-0.328644218347999	0.336823593032762	0.700320847115909	-0.629365218510966	0.628309069606776	0.330658908204195	0.704196279083522
218	0.0001	-1.53520751953125	-2.23275695800781	6.71683227539063	0.689835804569291	-0.624094516567294	-0.366923148799412	0.337757842336848	0.725723800478754	-0.599370173898094	0.640348500954126	0.289535835103895	0.711423079128372
219	0.0001	-1.62861328125	-3.01173706054688	3.19555480957031	0.679329671228013	-0.614143096609644	-0.401670828759021	0.341401048709251	0.749014138643099	-0.567823162659784	0.649581805263559	0.248608280231078	0.718496625789629
220	0.0001	-1.35677856445313	-4.64214660644531	2.28664489746094	0.670655082346225	-0.597175771786893	-0.440003247844726	0.336474243404717	0.773557743928361	-0.537022811744239	0.661064931794451	0.212107318117961	0.719724698445458
221	0.0001	-0.895138549804688	-6.16298400878906	3.18357971191406	0.657655656330382	-0.579627834939965	-0.481165886840977	0.331106318710639	0.796135211084903	-0.506495144478886	0.676651788888896	0.173782331189358	0.715501263422958
222	0.0001	-3.00036071777344	-5.10737915039063	1.47114074707031	0.642030681634902	-0.555991964898747	-0.527891597591261	0.315450448687951	0.81913078879412	-0.479078036724805	0.698775799711176	0.141059157155975	0.701295013471829
223	0.0001	-4.55832092285156	-6.05999816894531	-2.37885314941406	0.622951376659108	-0.528310001732265	-0.576905646001299	0.295502190884996	0.841770136550058	-0.451775931623924	0.724299687629844	0.110957556219267	0.680498628372724
224	0.0001	-4.1912841796875	-4.83913696289062	-9.57349182128906	0.61470324638902	-0.489025656460918	-0.618864949889528	0.266161931150531	0.867189915362125	-0.42087940921415	0.742494272897118	0.0939976489982569	0.663224469314711
225	0.0001	-4.97445556640625	-5.27143798828125	-11.0697802734375	0.599762561431558	-0.44831470290811	-0.662796195720426	0.232245677004181	0.890184390641231	-0.39196134525176	0.76573286165472	0.0811521892194694	0.638018421965198
226	0.0001	-5.68637512207031	-2.59200988769531	-11.9212097167969	0.593866372535954	-0.413067556484807	-0.690433143288081	0.213037752364392	0.908248208028582	-0.360139012994148	0.775846407247283	0.0667861242515385	0.627377052472389
227	0.0001	-4.17451904296875	-2.47046264648438	-17.4555010986328	0.588884654128343	-0.393047794085924	-0.70620697794367	0.193440484643489	0.916931082052319	-0.349024597510341	0.784726476571954	0.0689262093151241	0.615997998889943
228	0.0001	-2.37346435546875	-2.63392272949219	-12.1056262207031	0.595985684254434	-0.385794408644559	-0.70424693000564	0.189159114525201	0.919795854079184	-0.343794148017077	0.780397266496889	0.0716816648616696	0.621161690195752
229	0.0001	-1.30408813476563	-3.77814331054688	-11.2799432373047	0.602955426661646	-0.384528129826232	-0.698987031948099	0.183030644591408	0.919476857163376	-0.34793978255068	0.776495033209953	0.0818561330219104	0.624783992182077
230	0.0001	0.04550537109375	-3.8176611328125	-7.49042358398438	0.605479562558934	-0.384369461064022	-0.69688924279601	0.17398203245954	0.918388721389608	-0.355376432541056	0.77661106849226	0.0939269600578729	0.622938981337335
231	0.0001	2.06690185546875	-4.45593383789063	-7.77782592773438	0.611214830704713	-0.394425036164889	-0.686181697200483	0.178661889482533	0.913357668981148	-0.365865682675834	0.771035900573469	0.101028012747205	0.6287264752396
232	0.0001	-0.0568817138671875	-6.21627319335937	-6.370751953125	0.617178616867722	-0.405468175114494	-0.674304170126931	0.184343503696696	0.907657867270233	-0.377060563606536	0.764923543582019	0.108410123843554	0.634932451149059
233	0.0001	0.618513793945313	-7.48802856445313	-5.20617370605469	0.622405391600785	-0.408622690701911	-0.66756200097804	0.179599893948263	0.904705910934028	-0.38633028979722	0.761810610716369	0.120559990728937	0.636482428693355
234	0.0001	2.23575073242188	-6.62881530761719	-9.15496215820312	0.623813929314584	-0.418130576647376	-0.660320378653901	0.171678534686533	0.897533623687073	-0.406152526865262	0.762484532512617	0.140000768653908	0.631678021190647
235	0.0001	1.30708190917969	-8.26341613769531	-3.78472961425781	0.636927641550511	-0.427638701927997	-0.641442374685554	0.178267568603898	0.891192140687447	-0.417129766812418	0.750029235038848	0.151333106061644	0.643859019970037
236	0.0001	1.00351318359375	-4.35115173339844	-10.0680633544922	0.638056346864477	-0.438064513977082	-0.633232642730918	0.159216534358962	0.879678758088921	-0.448124288288257	0.75334865328922	0.185107439507865	0.63103172854157
237	0.0001	5.3887939453125	-8.14665893554688	1.18733093261719	0.659819235129829	-0.451189669854195	-0.600888058434805	0.175527440307144	0.870088427260444	-0.46058250775151	0.730635815336142	0.198428855170589	0.653297248412834
238	0.0001	4.46611267089844	-6.60845764160156	-2.71355712890625	0.671161677721871	-0.458880054018647	-0.582212245131797	0.176846473666839	0.86181734096062	-0.475390571605254	0.719907860152372	0.21610175113453	0.659570091838178
239	0.0001	5.16605712890625	-9.64055236816406	11.2236602783203	0.688101341540254	-0.464444958026956	-0.557501053571956	0.180236404792207	0.853636412048381	-0.488691839928545	0.702873660168086	0.23578752509093	0.671098249776746
240	0.0001	4.11643981933594	-6.38751708984375	1.89685546875	0.703168868661965	-0.47421646448245	-0.529785132821239	0.183980663080678	0.841077248398754	-0.508665093984613	0.686807584230872	0.260207238638255	0.678665996793126
241	0.0001	5.49776733398437	-4.78884155273438	1.72980285644531	0.707239097657257	-0.484681099324597	-0.514681542997657	0.173424056082493	0.824701420175408	-0.538323011149034	0.685373588283679	0.29146491987573	0.667316450392906
242	0.0001	5.201982421875	-5.44567565917969	4.21882690429688	0.717056708183222	-0.499292531645121	-0.486350331646693	0.184254202978943	0.808722573664578	-0.55858588196439	0.672220251059158	0.310925661032901	0.671896693976996
243	0.0001	5.42112670898438	-4.30385009765625	9.82077758789062	0.724415159649599	-0.519648895645744	-0.452976491359104	0.199050690942301	0.786780524917517	-0.584256132227904	0.660001135533295	0.333078715718485	0.673392211293007
244	0.0001	6.12765747070313	0.322130126953125	7.39641906738281	0.708454654182086	-0.535332612894471	-0.459903246932786	0.173664047196548	0.763841357628392	-0.621600497978991	0.684056139274443	0.360507106653938	0.634114993020155
245	0.0001	2.19443664550781	0.331710205078125	12.3080053710938	0.720953288611865	-0.547019635000241	-0.425436099272195	0.181409797248377	0.741489300527328	-0.645975311189055	0.668817494614218	0.388539748452713	0.633813870761964
246	0.0001	11.1278594970703	3.55001770019531	19.6194012451172	0.73317905176052	-0.561755179564149	-0.383248739453108	0.218022626569829	0.727998249800686	-0.649988217270691	0.64413865926766	0.393000847988893	0.656228406209966
247	0.0001	2.71475463867188	3.34224975585938	3.39015014648438	0.742486589260652	-0.573497333868918	-0.34614227250269	0.244450087042061	0.713076233903303	-0.657089369558974	0.623664829626629	0.403265536201056	0.669641013976342
248	0.0001	1.62142822265625	2.95365783691406	5.38699768066406	0.741282116169165	-0.584191123190164	-0.3304868466877	0.244786596324083	0.693777674542454	-0.677312380343468	0.624964276185315	0.421180804278019	0.657287139384216
249	0.0001	2.33634155273438	3.17220336914063	10.0764459228516	0.749314875077282	-0.588354186821166	-0.303918687872139	0.259960569472891	0.683446760206228	-0.682144433593753	0.609054776113979	0.432134095870271	0.665065713203692
250	0.0001	1.08853637695313	5.02355346679688	2.06151306152344	0.748917125296406	-0.58932511793227	-0.303016575143809	0.243749575385013	0.670200970644014	-0.701011271983159	0.616205553315931	0.451139185088081	0.645572731565289
251	0.0001	0.338296508789063	8.53405334472656	13.5132989501953	0.754380204244022	-0.584503064002698	-0.298775292847661	0.232927133420081	0.663876765275732	-0.710642379149833	0.613722622983259	0.466501670627758	0.63696211295497
252	0.0001	-1.25259521484375	7.94607604980469	8.44124633789063	0.764497605466308	-0.578769752031261	-0.283846763888467	0.239271360084007	0.663645848621622	-0.708747771672572	0.598575498562906	0.473919573072225	0.645838687892889
253	0.0001	-0.914298706054688	7.93769348144531	9.57588684082031	0.770356613102709	-0.572213193220837	-0.281287664416583	0.239790515445613	0.66876763569567	-0.703740263270726	0.59080554952645	0.474680851678301	0.652400867334427
254	0.0001	-0.2155517578125	7.96523620605469	8.3921484375	0.776449919312492	-0.563121323458345	-0.282877885077901	0.241338784280846	0.680376799964563	-0.691984827342207	0.582134962016084	0.469022158470688	0.664181527040635
255	0.0001	-2.20281921386719	8.20234313964844	6.91382263183594	0.784558717201888	-0.550668331837201	-0.285012293724606	0.24074000319548	0.694120333646785	-0.678410799795755	0.571412171837429	0.463639246321652	0.677146054515806
256	0.0001	-0.465232543945313	6.50068176269531	6.73659118652344	0.788690886631133	-0.541245891760866	-0.291581155078621	0.24402672135663	0.710919724156475	-0.659578733032847	0.564285073884585	0.4490501424755	0.69277436798268
257	0.0001	-0.191002807617188	5.05289245605469	11.0338549804688	0.788350320867382	-0.528255969519077	-0.315355992896531	0.239413394883405	0.735596840544346	-0.63370222859919	0.566731857176478	0.42407890639436	0.706379560302154
258	0.0001	0.526904296875	5.30975830078125	9.67587890625	0.783456695234517	-0.522628876504974	-0.336236024446159	0.251392232302035	0.76134197849864	-0.597628929448681	0.56832873605899	0.383689261276524	0.727863310347943
259	0.0001	-0.192200317382813	2.01960021972656	5.57919799804688	0.765194457853408	-0.520230286717643	-0.379259660987176	0.252113480853018	0.7841854871492	-0.567002570114763	0.592381831627713	0.338250750961843	0.731211457125192
260	0.0001	1.32264953613281	1.58849670410156	11.1278594970703	0.745055617324198	-0.520567287737526	-0.417015378650781	0.26352771963413	0.80408240420188	-0.532920846127602	0.612735887702111	0.287160558208331	0.736270022295751
261	0.0001	2.14533874511719	0.84065185546875	9.89023315429688	0.733677094467711	-0.518817298678152	-0.438801243897191	0.285904093988121	0.821529230700182	-0.493303732142784	0.616422558067312	0.236470576811309	0.751069168724345
262	0.0001	-0.722098388671875	-2.25730590820313	5.40915161132813	0.718785348843074	-0.50795999989377	-0.474683326857455	0.291109599207792	0.839932897511934	-0.458004289200751	0.631350000821747	0.191021899752691	0.751603492725555
263	0.0001	-1.56694152832031	-5.84504516601563	9.39925415039063	0.708588693780432	-0.486345152932699	-0.511244027119546	0.287030412806524	0.860543726528474	-0.420806412565925	0.644604999337314	0.151436082065526	0.749367405134481
264	0.0001	-0.726888427734375	-4.14577880859375	5.72828796386719	0.69962747179815	-0.46520694977099	-0.542313465248744	0.286984613448805	0.878049161288867	-0.382974544850644	0.65434030316722	0.11230389238441	0.747814551480741
265	0.0001	-3.37637878417969	-5.07923767089844	4.54454956054688	0.683462500023727	-0.44085337803074	-0.581830997919674	0.280715393239372	0.894480740838463	-0.34799866704851	0.673853009980502	0.0745151216060211	0.735098372731336
266	0.0001	-1.7292041015625	-5.84624267578125	0.418529663085938	0.669341977187878	-0.412736243489395	-0.617762179875464	0.2739962949927	0.910016023658681	-0.311121948783299	0.690584786904907	0.0389824318726683	0.722200126073651
267	0.0001	-2.64709533691406	-5.20856872558594	-4.6894482421875	0.658055215388744	-0.381177859001489	-0.649358740071091	0.263200620284789	0.924440224137858	-0.27592699302107	0.705470599657687	0.0106635736499886	0.708658959737077
268	0.0001	-1.21966369628906	-6.23543334960938	-5.83965637207031	0.649609361710247	-0.350564578314558	-0.674620006825725	0.254021015037223	0.936431581582057	-0.242010778551674	0.716575886489257	-0.0141551915163363	0.697365492016397
269	0.0001	-4.36731811523437	-6.42643615722656	-9.85131408691406	0.642806169245654	-0.326135636746514	-0.693134745358847	0.25086793672449	0.944569095593721	-0.211788814560301	0.723785539440604	-0.0377461268636435	0.688991816209357
270	0.0001	-4.24157958984375	-2.34891540527344	-15.4802087402344	0.64620100317468	-0.302794528977497	-0.700528184099208	0.240407280560611	0.95195361779559	-0.189706744791379	0.724312503653975	-0.0458233869021616	0.687947392075387
271	0.0001	-3.20513488769531	-2.33215026855469	-13.2546368408203	0.651560251928116	-0.290016824593059	-0.700970384224847	0.229092074022511	0.956117503669294	-0.182636635966782	0.72317775112861	-0.0415879866086067	0.689408717411093
272	0.0001	1.03285217285156	-2.66086669921875	-12.0176092529297	0.654267519929184	-0.296703517892414	-0.695629955390063	0.228189481463696	0.954405596256746	-0.192456536348172	0.721015653723999	-0.0328173780803932	0.692141204365759
273	0.0001	-0.916693725585938	-6.81742309570313	-6.68449951171875	0.662404858486919	-0.307816125048497	-0.682985385358321	0.2383004565371	0.950908739700831	-0.197447363048455	0.710234254219786	-0.0319656365603282	0.70323929228404
274	0.0001	-1.57292907714844	-7.44192443847656	-5.75163940429688	0.665739872707987	-0.309121900854018	-0.679142159123664	0.231086518901484	0.950819828861495	-0.206253906207353	0.709499431055972	-0.0196291481271172	0.704432575819046
275	0.0001	1.70884643554688	-5.69595520019531	-6.73060363769531	0.672058068528911	-0.310487369651814	-0.672261515938468	0.22537086687888	0.950544828370636	-0.213711257588598	0.70536935352158	-0.00788178561848502	0.708796129058288
276	0.0001	2.92851013183594	-6.68569702148438	-5.11695922851563	0.684499068665141	-0.31393906696435	-0.657953864058954	0.227166149941481	0.949442447451488	-0.21669005352829	0.692716800227423	-0.001140706308279	0.721208800190207
277	0.0001	1.37593872070313	-7.14673828125	-6.52044067382813	0.696469522507662	-0.321694896995963	-0.641437913959492	0.228744769938599	0.946779516402247	-0.22646054302431	0.68015147904249	0.010997298208408	0.732989102912471
278	0.0001	1.25798400878906	-8.66757568359375	-3.2811767578125	0.71082280326787	-0.329356497020992	-0.621494360573343	0.234288627842034	0.944003880807361	-0.232304782310955	0.663204177624285	0.0195184756245147	0.748183966609143
279	0.0001	2.10641967773438	-8.0041552734375	-2.53093688964844	0.724583310133976	-0.344212218715889	-0.597073676493928	0.240437167186854	0.938166035775529	-0.249067175581992	0.645886209258606	0.0369112151508802	0.762540862436653
280	0.0001	3.841611328125	-9.08730285644531	3.13867309570313	0.736985274629397	-0.364603853951854	-0.569136832987365	0.244326352467506	0.928799994604417	-0.278630945002094	0.63020420378585	0.0662917770639054	0.77359424883097
281	0.0001	2.42196350097656	-9.51062255859375	4.25535095214844	0.754816970002625	-0.386961847128845	-0.529633713676433	0.256939215088095	0.917350984141422	-0.304054948396963	0.603517672935906	0.093422164187084	0.791857763548878
282	0.0001	6.60247009277344	-6.43062744140625	0.359851684570313	0.761252024041938	-0.400901471076721	-0.509679670362252	0.257688338103522	0.908288929782926	-0.329557188419903	0.595056363966891	0.119537569501422	0.794744420037156
283	0.0001	3.9853125	-5.86959411621094	5.82109497070313	0.765395904207191	-0.414110635203224	-0.492627132458657	0.251708844764251	0.897124368696861	-0.363057191855093	0.592293649544129	0.153883881228158	0.790890626956632
284	0.0001	3.73443420410156	-3.85897521972656	5.94623474121094	0.774886396682525	-0.432280907566952	-0.461177069236388	0.261812070147352	0.883562105171894	-0.388294277873584	0.575330784993754	0.180142230632637	0.797836615217156
285	0.0001	0.9580078125	-0.894539794921875	14.6239892578125	0.777608853344572	-0.437909969555715	-0.451175497743233	0.250410102486815	0.873908585176346	-0.416627609895959	0.576731524864632	0.210994415373464	0.7892161332034
286	0.0001	5.37143005371094	-3.28237426757813	11.4667547607422	0.792196566830066	-0.444316605048748	-0.418338802862717	0.261185333213611	0.866398596316698	-0.425600392404131	0.551549473045485	0.227895210082199	0.802406974050474
287	0.0001	3.06981628417969	-0.434097290039062	1.18373840332031	0.79483522439398	-0.459202788067351	-0.39669858267171	0.265117207821979	0.850817156952465	-0.45367723279001	0.54584781045567	0.255427024542227	0.798002006861045
288	0.0001	5.71631286621094	-0.352666625976563	13.8216577148438	0.794492983012302	-0.467028658818569	-0.388156066275337	0.267391270335996	0.84291957560552	-0.466892383327371	0.545236470251502	0.267153178725501	0.794573074427107
289	0.0001	2.31418762207031	2.64829284667969	4.51580932617188	0.794225019717719	-0.484138679777388	-0.36717346962682	0.274531976246267	0.82499885348871	-0.493972758115905	0.542069010433826	0.291524665312771	0.788146279215711
290	0.0001	-0.671204223632813	4.75471252441406	18.3272882080078	0.805831644237649	-0.471068608356936	-0.358789252021164	0.258355628636817	0.824900338192452	-0.502784050265771	0.532811158194836	0.31246407516807	0.786434022300943
291	0.0001	4.47030395507813	4.15116760253906	7.33534606933594	0.810863216158875	-0.483636781130281	-0.32953954029589	0.279585022754389	0.814801589893594	-0.507868668218762	0.51413330930014	0.319677701826093	0.795910238169653
292	0.0001	0.492775268554688	6.32704284667969	6.15639770507812	0.813723571683423	-0.483954526605181	-0.321934721745151	0.273036610545509	0.807207986688851	-0.523322343806906	0.513132495744124	0.337939761502088	0.788981469622271
293	0.0001	0.110769653320313	6.87131103515625	13.2085327148438	0.823452904602577	-0.479914415159986	-0.30266725627862	0.269774005484155	0.800454236570644	-0.535252278015837	0.499146571526455	0.359103284972104	0.78860480017283
294	0.0001	0.2921923828125	6.05999816894531	2.43453735351562	0.827334013355679	-0.485244138247366	-0.282942673772193	0.27929760744974	0.792406987456024	-0.54229513431684	0.487351286873891	0.369633998067602	0.791112779984576
295	0.0001	-3.85837646484375	8.51549194335938	6.85155212402344	0.827042517803592	-0.4865059150747	-0.281625049209805	0.275024271729942	0.787120791102367	-0.552089223019069	0.490267604176037	0.379147536998084	0.784783295874584
296	0.0001	-3.8080810546875	8.21671325683594	15.4227282714844	0.836753763131337	-0.478049614350347	-0.267042517410677	0.281865002945428	0.794132819378718	-0.538428440277984	0.46946273547548	0.375262083623024	0.799239080998162
297	0.0001	-1.37713623046875	9.15077087402344	5.88516174316406	0.851119737071155	-0.459772566799678	-0.253385832252643	0.284815887202816	0.809869132494686	-0.512827357528026	0.440993314648649	0.364309175084488	0.820246134635488
298	0.0001	-0.79754150390625	7.14733703613281	4.03740417480469	0.856654661232372	-0.442773630086607	-0.264753288721366	0.274528592898483	0.825755160081739	-0.492709313165035	0.43678008547784	0.349399381937506	0.828941028560935
299	0.0001	-1.50467102050781	3.63983093261719	6.02706665039063	0.860182099957639	-0.428707757823607	-0.276218053889174	0.268444890756845	0.841129015364295	-0.469509659260422	0.433617452991704	0.329714479351678	0.83860852998693
300	0.0001	-2.64290405273438	2.13336364746094	7.79039978027344	0.8595529259371	-0.41259640292606	-0.301550950596158	0.258039134730026	0.859722069634307	-0.440787667626356	0.441117413463524	0.301068383056375	0.84544263925063
301	0.0001	0.71132080078125	0.124541015625	10.7015460205078	0.853395673656159	-0.402585555014559	-0.331120363430839	0.256817643104335	0.877506683566427	-0.40500212158282	0.453608335874999	0.260589507060185	0.852251480746642
302	0.0001	-3.52247497558594	1.19571350097656	5.66960998535156	0.84995257015385	-0.382067415458404	-0.362774197723325	0.244148968424268	0.895793063318321	-0.371410916544124	0.466874618828474	0.227110716954783	0.854662981846092
303	0.0001	-3.46080322265625	-1.91960815429688	9.19627624511719	0.845817516408019	-0.358671784714735	-0.39490160772896	0.228313684957776	0.912406625563581	-0.339686636311589	0.482146855427236	0.197151465825714	0.853619182847013
304	0.0001	-1.47892456054688	-1.86512145996094	7.22697143554688	0.840727576124099	-0.348036526401124	-0.414786353482293	0.228545644823626	0.922567096300779	-0.310864666784925	0.490860500526016	0.166554883188064	0.855169831033321
305	0.0001	-1.65555725097656	-3.74161926269531	7.35869750976563	0.836912011721782	-0.332046997889321	-0.435112716233954	0.224049919388509	0.933140200407864	-0.281160096750543	0.499379533278851	0.137819293190256	0.855351345452111
306	0.0001	0.817899169921875	-5.59296936035156	8.44364135742187	0.834183215859409	-0.319971093127256	-0.449173532102465	0.231052320976471	0.942321249774247	-0.242168303448835	0.500752620911604	0.0982301470366923	0.859998634221769
307	0.0001	0.580792236328125	-5.15527954101563	5.29658569335938	0.828920002790604	-0.305044055123603	-0.468870721422626	0.233574346389952	0.950399773139793	-0.205385724733579	0.508266321609186	0.0607321632216337	0.859055848398862
308	0.0001	0.01197509765625	-6.92280395507813	3.76676696777344	0.81948596627939	-0.28802307015785	-0.495464894950169	0.234200208583489	0.957356910499742	-0.169168579286579	0.523061194670935	0.0225932949176475	0.851995615982958
309	0.0001	-1.3939013671875	-6.792275390625	1.07955505371094	0.80897005074316	-0.275052594165526	-0.519532027350984	0.238797066162274	0.961339449552081	-0.137121930876109	0.537162376002732	-0.0131351885299071	0.843376575812599
310	0.0001	-1.15559692382812	-7.79039978027344	1.39150634765625	0.800079484016817	-0.256371194840926	-0.542352864573629	0.239628394731576	0.965401829172144	-0.102847171421712	0.549955499739527	-0.0476772344721778	0.833832015228087
311	0.0001	-0.689765625	-7.79638732910156	0.51971923828125	0.788640816904592	-0.228414242643751	-0.570852516565829	0.236884272742702	0.969638500875055	-0.0607208279582766	0.567390080314434	-0.0873390598658991	0.818804241184987
312	0.0001	-1.81781982421875	-5.76062072753906	-0.374820556640625	0.777545629669463	-0.194251706976599	-0.598071122959967	0.228462050112432	0.973364949283588	-0.0191250402505148	0.585856539982565	-0.121765963400438	0.801214805602605
313	0.0001	-3.76377319335938	-5.22174133300781	-9.62139221191406	0.762281729587382	-0.149726569440483	-0.629689224253404	0.207558223569774	0.978043805439394	0.0187055732387057	0.61306292382253	-0.14495609350839	0.77662190439683
314	0.0001	0.180225219726562	-4.72657104492187	-11.0158923339844	0.751960365238909	-0.121513060243585	-0.647912174063742	0.201416192318581	0.978213280537303	0.0503020402402572	0.62768393844486	-0.168325143608099	0.760052313625623
315	0.0001	-0.5221142578125	-2.7351123046875	-14.7844555664063	0.750412600713317	-0.106012429660112	-0.652412671127896	0.199731409611318	0.977279882320178	0.0709323313231348	0.630070069679041	-0.183535817675512	0.754537150129024
316	0.0001	-1.1352392578125	-4.24098083496094	-12.9588519287109	0.746062982778463	-0.0969082326067683	-0.658785868230896	0.196738679235396	0.977264344240807	0.0790461483457543	0.636147716981217	-0.188582066826672	0.748166349317427
317	0.0001	0.600551147460938	-4.35175048828125	-12.9744195556641	0.743923777224576	-0.102540683268851	-0.660350529608841	0.200232494561491	0.976959713758628	0.0738692480965037	0.63756126121464	-0.18717672389327	0.747315537260521
318	0.0001	-0.798140258789063	-7.17907104492188	-7.13775695800781	0.745181593905135	-0.108998873580772	-0.65789333304353	0.201912081095908	0.977122053232898	0.0668132067292521	0.635559520117921	-0.18262458389836	0.750141558469753
319	0.0001	-1.84117126464844	-6.56295227050781	-6.49948425292969	0.743466449625386	-0.113339274829661	-0.659099269505368	0.199322914807921	0.978297447276961	0.0566081291322774	0.638379208553895	-0.173459832331491	0.749922444425845
320	0.0001	1.34240844726563	-6.26177856445313	-6.18992797851562	0.742872414842812	-0.111394110506506	-0.66009993744135	0.190885432241357	0.980369474887751	0.04938060820146	0.641641120115942	-0.16268695354201	0.749552952181218
321	0.0001	1.36396362304688	-6.70365966796875	-6.69288208007813	0.742293864776068	-0.116162064426801	-0.659928930343193	0.18401689011159	0.982332381893382	0.0340716251055692	0.644311727713742	-0.146729227735237	0.750555082095081
322	0.0001	2.04175415039062	-7.15571960449219	-4.96607299804687	0.749065210123469	-0.125914904889944	-0.650420439184717	0.184388865239234	0.982604164185331	0.022131491170602	0.636319147408336	-0.136508216793727	0.759251901143043
323	0.0001	2.85486328125	-8.55321350097656	-3.13508056640625	0.760231047357053	-0.140052050034281	-0.634376999831799	0.188779191210434	0.981974189968795	0.00943966106720651	0.621619796660574	-0.126933500370567	0.772966179650405
324	0.0001	2.9171337890625	-10.1991906738281	0.939446411132813	0.764139817014616	-0.150988396219597	-0.627130643693883	0.193036917941523	0.98119096141457	-0.00102252138800445	0.615489308083014	-0.120278017299027	0.778913416362889
325	0.0001	1.26696533203125	-8.04067932128906	-4.7277685546875	0.771261459510158	-0.164608255222104	-0.614865744197053	0.194986686173908	0.980641646626249	-0.0179486243784036	0.605917447586038	-0.10604755166855	0.788427525836032
326	0.0001	1.33402587890625	-9.18909118652344	-0.1963916015625	0.774821843942663	-0.174895570692618	-0.607505267056505	0.190260339701318	0.980929015666513	-0.0397400221472728	0.602869897478744	-0.0847927212420382	0.793320919387822
327	0.0001	1.02806213378906	-8.19396057128906	-0.3784130859375	0.779354021793307	-0.18888930503192	-0.597434631703884	0.186058779707612	0.980237516668282	-0.0672052186196429	0.598322186792627	-0.0587813011131739	0.799096564522168
328	0.0001	2.62913269042969	-5.15707580566406	1.93637329101563	0.773611710790076	-0.197426457826937	-0.602119352519383	0.166289624612425	0.980174045460623	-0.107733937789424	0.611451291334568	-0.016781965178897	0.791104091741424
329	0.0001	2.27826232910156	-8.89630004882813	8.93282409667969	0.781910921726527	-0.198774081069436	-0.590850383074915	0.163655939880429	0.980010636289956	-0.11311890248941	0.601524765763328	-0.00824726946064866	0.798811578984567
330	0.0001	-0.0137713623046875	-3.477568359375	1.74716674804688	0.786758666967325	-0.205400188053197	-0.582083810717589	0.146866683384646	0.978220899849576	-0.146676679840659	0.59953396673032	0.0299104303746414	0.799790215551185
331	0.0001	5.97736999511719	-7.95146484375	12.3032153320313	0.794980373323186	-0.205230553731153	-0.570864805226362	0.140967264644384	0.977772381474428	-0.155207603951957	0.590029182608461	0.0429137488578142	0.806240642630574
332	0.0001	0.247884521484375	-2.42196350097656	6.74557250976563	0.80871103222058	-0.22099662633506	-0.545111876144014	0.143047975037676	0.972806141751353	-0.182168843133143	0.570546880810285	0.0693448031172437	0.818332178933644
333	0.0001	7.07428894042969	-4.46850769042969	11.6116534423828	0.813824729768712	-0.224018763911161	-0.536194836447162	0.135476074647262	0.970422924039031	-0.199813867631122	0.565097816678717	0.0899718951409467	0.820103356699444
334	0.0001	4.83614318847656	-1.77530822753906	4.66130676269531	0.81672814400309	-0.242278491802077	-0.523694826405016	0.139643548791544	0.963593086567684	-0.228008865616818	0.559870358274282	0.113090653588506	0.820826221557738
335	0.0001	3.76377319335938	-1.09632019042969	2.94168273925781	0.825954476426941	-0.253522141147006	-0.503513382958721	0.133845023377259	0.955822058033643	-0.261705374597986	0.547617304864847	0.148763965141323	0.823398184408972
336	0.0001	4.282294921875	1.06997497558594	12.2421423339844	0.832327464494889	-0.254698110691978	-0.492300583238987	0.121816040225255	0.950513072373127	-0.28580719303691	0.540732691994251	0.177915068664055	0.822164450794922
337	0.0001	-0.93166259765625	3.56977661132813	9.13580200195313	0.83725689801363	-0.260873376491837	-0.480568380323073	0.112779430255297	0.942347049357441	-0.315060055669733	0.535052975732202	0.209587976766496	0.818407718166833
338	0.0001	5.70852905273438	4.39126831054688	18.010546875	0.847400570502999	-0.253361706203193	-0.466604885251965	0.103832641161099	0.94091349595791	-0.322336122322296	0.520702463735964	0.224698996335255	0.823637848392864
339	0.0001	2.32855773925781	5.28281433105469	4.93972778320312	0.861785136311872	-0.252746314555754	-0.439824600619852	0.105735355118216	0.937491732101562	-0.331555857917244	0.496131447813937	0.239224899873944	0.83464066146477
340	0.0001	-0.735869750976562	8.12151123046875	7.85147277832031	0.870201724090385	-0.258165789016868	-0.419641972127931	0.106497401929665	0.930151390397162	-0.351392507496188	0.481048087796171	0.261091586083361	0.836913329386098
341	0.0001	-1.56215148925781	6.14861389160156	15.6843841552734	0.865894828798053	-0.247734654997802	-0.434572992918233	0.0827518327295536	0.927724150873483	-0.363978068111219	0.493333841977915	0.279205015354659	0.823812041524105
342	0.0001	2.55189331054688	5.47082336425781	12.8594586181641	0.873231384121391	-0.247830958075228	-0.419579272611213	0.0959189314851083	0.931588974425701	-0.350630205931013	0.477772444128159	0.26593570453774	0.837264410257489
343	0.0001	-0.700543212890625	6.23842712402344	7.37965393066406	0.873354746680866	-0.241615783798419	-0.422934155004626	0.0984923646015485	0.937961345385742	-0.332457168184661	0.477022788308061	0.248697260904989	0.842970303067172
344	0.0001	-0.13172607421875	4.67627563476563	6.44200378417969	0.874595412382523	-0.236377973494523	-0.423330034708225	0.104096302814201	0.944292793007183	-0.312209994739291	0.473547066699667	0.228990337615622	0.850480217817455
345	0.0001	-1.42443786621094	3.00634826660156	8.5981201171875	0.875432271052604	-0.229899184769278	-0.425164325457937	0.108349892894219	0.950593227089269	-0.290917200113405	0.471039955321725	0.208611796057733	0.857089539684201
346	0.0001	-0.592767333984375	2.24712707519531	6.75934387207031	0.873230797611684	-0.222606216378564	-0.433490999366864	0.10984543714988	0.956587533923993	-0.269952347421847	0.474765156724685	0.188113695330334	0.859773972384227
347	0.0001	0.989741821289063	1.47772705078125	9.61300964355469	0.865519033895274	-0.219913802374579	-0.450016356913997	0.11769508141238	0.962597185488854	-0.244037960777149	0.486851794467602	0.158254788281716	0.859028958888805
348	0.0001	0.127534790039063	0.336500244140625	9.67468139648438	0.859896145215149	-0.214367984834298	-0.463276360849774	0.126315008038166	0.96868209990854	-0.213774432664664	0.494593912405365	0.125305053349268	0.860043897377739
349	0.0001	-0.4167333984375	-0.880169677734375	7.94727355957031	0.85530455986559	-0.205746229854702	-0.475523499707119	0.132978796890807	0.974203795013597	-0.182328290066513	0.500770156309862	0.0927116750020252	0.86060083422439
350	0.0001	1.02207458496094	-2.73451354980469	9.37829772949219	0.846697572356074	-0.19987863726733	-0.493104199262677	0.14226795106439	0.978061413602199	-0.152169975101555	0.512701717440336	0.0586890244136231	0.856558548697698
351	0.0001	1.19511474609375	-2.53632568359375	9.11304931640625	0.840198465212015	-0.192402275380302	-0.50699891862198	0.157623261189962	0.981223599094429	-0.111153749878344	0.518865538060889	0.0134763870773637	0.854749636094761
352	0.0001	-0.120948486328125	-3.79730346679688	5.54506896972656	0.83118143314001	-0.18257802561779	-0.525169201081736	0.169990786511675	0.982766157854348	-0.0726210126433537	0.529377519077323	-0.0289126881786107	0.847893565701395
353	0.0001	-1.21966369628906	-5.62889465332031	6.48870666503906	0.821267556558216	-0.168246152117937	-0.545172296473698	0.180873489034354	0.98302094681007	-0.0308965871444194	0.54111401895482	-0.0732328507579835	0.837754479582426
354	0.0001	-1.66992736816406	-5.35406616210938	6.01509155273438	0.817219652839818	-0.143973951086966	-0.558053349081228	0.183417776595069	0.982920418690324	0.015012319959312	0.546360648510934	-0.11462526741538	0.829669265327253
355	0.0001	-3.15064819335938	-4.7852490234375	1.56394775390625	0.808450898340846	-0.116057535660972	-0.57700761987012	0.183198470630512	0.981285295263483	0.0593084282231507	0.559325902610026	-0.153654865578548	0.814582541522661
356	0.0001	-1.81841857910156	-3.00095947265625	-2.73870483398438	0.795109194969828	-0.0879895513549023	-0.600049337077206	0.185147179163172	0.977401897524724	0.102010062067376	0.57751354107272	-0.19220658044779	0.793432253132059
357	0.0001	-5.14090942382813	-4.033212890625	-7.58442810058594	0.792564394783988	-0.0547460316847626	-0.607325738080861	0.181547772351836	0.971981855496491	0.149303981660523	0.582135797279963	-0.228591654704127	0.780297231140065
358	0.0001	-2.10043212890625	-3.90986938476563	-14.6844635009766	0.789704397394781	-0.0277691857646074	-0.612858741519868	0.173068977947354	0.968483750699446	0.179126640964964	0.588569531667758	-0.247523932081534	0.769621861331454
359	0.0001	-0.0089813232421875	-3.73263793945313	-15.2826196289063	0.785743007568092	-0.00791994874789621	-0.618502385177034	0.163231506484636	0.967127964384646	0.194984552711152	0.59662668507921	-0.254166824973368	0.761206820604198
360	0.0001	0.681981811523438	-4.44635375976562	-12.4594903564453	0.787735562382701	-0.000139146055877795	-0.61601352614694	0.158649282016744	0.966312939615675	0.202656625963441	0.595233642423866	-0.257369934859707	0.761221142347694
361	0.0001	0.513132934570313	-5.89833435058594	-10.2309246826172	0.78298138438255	0.00512868405025523	-0.622023993355802	0.154277323353102	0.96712184599923	0.202172803537085	0.602609873142972	-0.254261738354309	0.756447162199487
362	0.0001	0.35685791015625	-6.27674743652344	-7.72393798828125	0.782118853905444	0.00556188434063132	-0.623104456578683	0.15400722841237	0.96721293573124	0.201942839810915	0.603797873433134	-0.253905892796403	0.755618902384587
363	0.0001	-0.121547241210938	-6.96232177734375	-5.16605712890625	0.779622250918317	0.0101869394206112	-0.626167207811378	0.151390721079775	0.967146550932401	0.204226341568632	0.607675896711399	-0.254015305217624	0.752466762901323
364	0.0001	0.09580078125	-6.66114807128906	-6.2462109375	0.780557153291994	0.0134844287833165	-0.624938957519122	0.150701107960342	0.966217581080263	0.20907597200762	0.606646277911786	-0.257374738837737	0.752155926190828
365	0.0001	0.283809814453125	-6.75215881347656	-7.58382934570313	0.787061050433195	0.0148998996360838	-0.616695140147732	0.149788397432578	0.965172738497185	0.21448781050779	0.598413184084021	-0.261188778190565	0.757418037322683
366	0.0001	1.49329467773438	-5.79415100097656	-8.47058532714844	0.789397850876481	0.0139574681356484	-0.613723245538928	0.145946974773074	0.966809612536486	0.209710881123601	0.596280566165107	-0.255116369898703	0.761160380093136
367	0.0001	2.37825439453125	-7.85207153320313	-4.66729431152344	0.791906790229423	0.0123820986330304	-0.610516436487975	0.142543542725064	0.968424770936222	0.204535575058506	0.593771819823004	-0.248998286481188	0.765137163725244
368	0.0001	2.28724365234375	-6.69348083496094	-7.44072692871094	0.795107268325969	0.00929469706671066	-0.606397592724158	0.142309712716925	0.969105611917186	0.201450387482979	0.589535730487679	-0.246470934507609	0.769220190141486
369	0.0001	1.94415710449219	-7.003037109375	-6.14262634277344	0.799224336047248	0.00566682809804409	-0.601006112888333	0.140430595645792	0.970517185447413	0.195897015183489	0.58439687582704	-0.240965308313332	0.774865157116421
370	0.0001	3.60091186523438	-8.43346252441406	-3.51289489746094	0.801422763992325	0.00211083282544718	-0.598094555851904	0.140238130081514	0.971453296837495	0.191341994697462	0.581424819066182	-0.237221492382849	0.778248766992606
371	0.0001	1.09392517089844	-7.56047790527344	-5.9635986328125	0.80574360896806	-0.00790307081047703	-0.592211767933474	0.14316042071911	0.972859255783979	0.181796486145826	0.574701949315167	-0.231262642697014	0.785006534715566
372	0.0001	1.24481140136719	-7.07848022460938	-4.32360900878906	0.810803306767331	-0.0171851160994924	-0.585066380438842	0.140381609437583	0.976103864941287	0.165874195034656	0.568234987893982	-0.216623905955294	0.793840715699187
373	0.0001	1.67830993652344	-7.57844055175781	-3.04706359863281	0.813986206420015	-0.0315110753251198	-0.580028885392623	0.136602774062541	0.980908579893668	0.138412571717336	0.564593781294456	-0.191899478954068	0.802750554095595
374	0.0001	2.55907836914063	-6.71144348144531	-1.40168518066406	0.822841890700693	-0.0444167406822875	-0.566531884411876	0.129244100127732	0.985441645461971	0.11045689644099	0.55337797705572	-0.164109465102916	0.81660326840722
375	0.0001	3.0416748046875	-7.16050964355469	5.06606506347656	0.827733760398847	-0.0512953966068145	-0.55877151339607	0.116341394182184	0.989862093706912	0.0814721758756643	0.548927592580051	-0.132445527403227	0.825310051056662
376	0.0001	3.2620166015625	-4.14518005371094	2.47405517578125	0.8326950385321	-0.0597812723492439	-0.550495388064541	0.100685563473318	0.993928706657615	0.0443637621260999	0.544501046933874	-0.092368422949763	0.833658613780059
377	0.0001	6.87610107421875	-6.53481079101563	16.0226806640625	0.833560873625406	-0.0694817960070777	-0.54804064628865	0.093538495094711	0.995486115813937	0.0160606088645021	0.544450934333175	-0.0646503924606235	0.836297499014806
378	0.0001	6.25698852539062	-2.99796569824219	6.56175476074219	0.848679317924944	-0.0840386840577116	-0.522188581748298	0.0873620971693044	0.996008352977952	-0.0183091446094206	0.521642865670213	-0.0300808972604838	0.852633485335506
379	0.0001	4.47090270996094	-1.38971008300781	13.9138659667969	0.849654334243034	-0.0914278524097459	-0.519353887157657	0.0725585326156361	0.995757410027352	-0.0565901026707441	0.52232439311858	0.0103984700490698	0.852683470095408
380	0.0001	4.473896484375	0.620908813476563	9.02862487792969	0.863136047618921	-0.105139394099001	-0.493904718654604	0.0763989722263148	0.994014916879131	-0.0780867598542677	0.499158652477898	0.0296656843890415	0.866002648278964
381	0.0001	2.11779602050781	-0.244890747070313	13.0073510742188	0.863013715772798	-0.102634153669863	-0.49464487957372	0.0616187629448934	0.993219898986495	-0.098576672242461	0.501408470651593	0.0545936146241251	0.863486585188851
382	0.0001	5.3313134765625	1.47772705078125	11.9248022460938	0.87686386249471	-0.114310344471053	-0.466950652422467	0.0712137813734903	0.991488743317443	-0.108989307811764	0.475434920881236	0.062315463744626	0.877541120965249
383	0.0001	0.699345703125	2.56626342773438	8.08738220214844	0.876604680648101	-0.116258445166952	-0.466956323217925	0.0660482166048922	0.990261467279938	-0.122555536406547	0.476656969894655	0.0765911244723962	0.875746500251585
384	0.0001	2.4956103515625	4.5744873046875	9.82377136230469	0.886611627911261	-0.125442708959741	-0.445178557459123	0.073628442275369	0.988523526741752	-0.131909399081916	0.456616550007385	0.0841746033367029	0.885672604528594
385	0.0001	0.801134033203125	5.08163269042969	9.09808044433594	0.886986956280622	-0.128474081139802	-0.443563467683399	0.0723934922937175	0.987329639712984	-0.141206815762372	0.45608477464344	0.0931374952396318	0.8850491993776
386	0.0001	0.738264770507813	5.62470336914062	12.0702996826172	0.890357757562362	-0.129583493320184	-0.436430042283366	0.0740272605928076	0.987086055469892	-0.142060141440213	0.449202658315428	0.094176628501059	0.88845243789779
387	0.0001	-0.334703979492187	4.57867858886719	10.8123156738281	0.892394764543454	-0.122653840246615	-0.434266760975546	0.0707173863847887	0.988473447390159	-0.133862971233723	0.445679969797094	0.0887484043652272	0.890782288353494
388	0.0001	0.360450439453125	4.80500793457031	9.87047424316406	0.895771901661886	-0.117342140081176	-0.428746454625829	0.0736037446468847	0.990368543632311	-0.117271635775967	0.438377906568072	0.0734912916255014	0.895781134590482
389	0.0001	0.073048095703125	4.74034240722656	6.81023803710938	0.898045669522913	-0.11222145527291	-0.425347293899436	0.0747766663184079	0.991784337269338	-0.103789587731748	0.43350020256679	0.0614017371387088	0.899059175500089
390	0.0001	-0.51732421875	3.82963623046875	9.0867041015625	0.898027202493286	-0.105151538786286	-0.427188831165983	0.0749710242170677	0.993390436825508	-0.0869182693768663	0.433504889372572	0.0460281860874593	0.899974953526803
391	0.0001	0.319735107421875	4.65951049804687	9.63995361328125	0.899946748235796	-0.0982000803851488	-0.42479712163828	0.0757594037040771	0.994704830097069	-0.0694464810625081	0.429367398727733	0.0303157581780985	0.902620956833968
392	0.0001	-0.118553466796875	3.3961376953125	10.145302734375	0.900667531408197	-0.0882314930883667	-0.425456462513454	0.0740238545307484	0.996009815617151	-0.0498489333356189	0.428157058598215	0.0134033884404609	0.903604937099637
393	0.0001	0.477207641601563	2.883603515625	10.9829608154297	0.898719361589804	-0.0788176623766511	-0.431382991321049	0.0749115432239838	0.996849421433354	-0.0260670612035315	0.432078430143669	-0.008888592997078	0.901792228353691
394	0.0001	-0.813707885742188	2.88120849609375	10.6159240722656	0.895388603797724	-0.0669427011640763	-0.440224854988926	0.0754621670829758	0.997146941713078	0.00185417674389513	0.438844744218618	-0.0348805302871636	0.897885649221872
395	0.0001	-0.782572631835938	-0.725092163085937	10.3003802490234	0.892083696311745	-0.0501066317654291	-0.449083515871936	0.0789577710226315	0.995828236659516	0.045736128681124	0.444918362365404	-0.0762590881451013	0.892318442208478
396	0.0001	0.459244995117188	-0.698148193359375	6.52942199707031	0.88900722459658	-0.0425650848039312	-0.455910482628686	0.0943773651692384	0.991324599638445	0.091479238603023	0.448061455113916	-0.124353334122213	0.88531191155089
397	0.0001	-0.720302124023438	-3.78293334960938	4.339775390625	0.880075830336728	-0.0235231476086573	-0.47425013904447	0.100060475333373	0.985532004164681	0.136801206292954	0.464170695039204	-0.167849129559045	0.869696634219711
398	0.0001	-0.5987548828125	-5.58817932128906	5.0726513671875	0.87131677573399	-0.0081954221938396	-0.490652536302003	0.110942614687301	0.977262537932139	0.18069219186445	0.478015494069877	-0.21187441329594	0.852414465163299
399	0.0001	-0.671204223632813	-5.39538024902344	5.41094787597656	0.867984981390205	0.00946743188355015	-0.496500191152608	0.118205696429963	0.967141153217484	0.225089766725773	0.482316789478195	-0.254063687855399	0.838344891497981
400	0.0001	-2.59739868164062	-6.65635803222656	4.16793273925781	0.861499451193518	0.0398077322973947	-0.506195653915171	0.114704330551996	0.955893700946158	0.270388884838256	0.494632805367665	-0.291002709507654	0.81893577948049
401	0.0001	1.77830200195313	-3.95717102050781	-1.07895629882813	0.849338714817206	0.0672680934347841	-0.523544411791689	0.118683237231459	0.942113481874171	0.313586473673829	0.514332612919809	-0.328477078160067	0.792189858815743
402	0.0001	-2.09624084472656	-5.33969604492188	-3.62665832519531	0.835532797332466	0.0951077059485987	-0.541146439377531	0.125843006940062	0.925597226429414	0.35697802737768	0.534835004637943	-0.366366344927275	0.761398200101997
403	0.0001	0.14609619140625	-5.86061279296875	-7.85686157226563	0.836799280176588	0.113278383691842	-0.535663114731739	0.128982856386474	0.910039848856237	0.393942757583007	0.532099978814443	-0.398742374575216	0.746909720959493
404	0.0001	0.759819946289063	-7.40001159667969	-9.19148620605469	0.833232788636667	0.129411770373218	-0.537564613446266	0.131072777785725	0.898282421541476	0.419414613566475	0.537162030363556	-0.419930095180676	0.731516006863316
405	0.0001	-0.698746948242188	-8.13528259277344	-5.04271362304688	0.827159967548193	0.145035663320168	-0.542928212981194	0.131707036827962	0.889180940301373	0.438190040798243	0.546314602162226	-0.433960726068669	0.716392660273877
406	0.0001	-0.21794677734375	-7.2856494140625	-8.32149536132813	0.824936586178621	0.160692872981354	-0.5419016786807	0.128400669950407	0.88039312144212	0.456531729098524	0.550447905564413	-0.446190264674612	0.705635423550541
407	0.0001	0.238903198242188	-6.28093872070313	-10.9919421386719	0.822539563652944	0.174650882290489	-0.541226140851288	0.126071251199046	0.87200155325119	0.472989778693598	0.55455811764569	-0.457285862937688	0.695237321862544
408	0.0001	0.334105224609375	-4.74632995605469	-12.1978344726563	0.825513336414873	0.177232247944213	-0.535832494059315	0.125904619750507	0.867656554396505	0.480957514067787	0.550159756913085	-0.464500628526406	0.693947698297148
409	0.0001	0.53887939453125	-5.14689697265625	-12.6295367431641	0.823942483280571	0.177654841197357	-0.538105511628146	0.128049007240906	0.866656413084187	0.482193025047718	0.552016517859805	-0.466203195033231	0.691326511100755
410	0.0001	-1.350791015625	-5.64027099609375	-8.96755187988281	0.832439688473485	0.16796704386765	-0.528044730329288	0.128616208158465	0.868355172826458	0.478975119212336	0.53898240792544	-0.466633009976679	0.701250025274152
411	0.0001	-1.32624206542969	-5.56901916503906	-6.90364379882813	0.833514560245763	0.167963833715146	-0.526347440786049	0.125012168028869	0.870627004618469	0.47579467911463	0.538168594125516	-0.462381627438616	0.704682761889478
412	0.0001	-1.00051940917969	-6.63839538574219	-7.40001159667969	0.830003348285747	0.174325146565845	-0.529816180490221	0.117904648710155	0.8735988865078	0.472147730381994	0.545154047629644	-0.454351987744226	0.704536255692982
413	0.0001	0.884959716796875	-7.00543212890625	-3.70509521484375	0.827689862320333	0.183411020241363	-0.530367692705892	0.108743555969149	0.874752575699897	0.472210514857072	0.550549117561125	-0.448517924904255	0.704079072400429
414	0.0001	1.81961608886719	-6.89526123046875	-7.17248474121094	0.825094181522336	0.190778568537747	-0.531811178337456	0.0995266686570002	0.877470033249772	0.469191627136167	0.556160079333303	-0.44005667650353	0.705007863516884
415	0.0001	3.26860290527344	-7.57005798339844	-5.90432189941406	0.823306478160075	0.193262411258574	-0.533681631138056	0.0934875072704845	0.881233472616795	0.46334398962768	0.559845093757197	-0.431366673648147	0.707457605699259
416	0.0001	3.57935668945313	-8.4448388671875	-4.02782409667969	0.829665809982534	0.191689811054987	-0.524318281279347	0.0880059380899153	0.882546876382794	0.461915539734146	0.551279963908483	-0.429378652618731	0.715349127397514
417	0.0001	3.59911560058594	-8.36041442871094	-5.82169372558594	0.827600497711399	0.188271387229245	-0.528801759583514	0.0871184205793516	0.887574616917568	0.452351279648231	0.55451582212197	-0.420434518271762	0.718155288821288
418	0.0001	3.17819091796875	-9.27052185058594	-0.605341186523437	0.838995456590051	0.182343410579338	-0.512676803102644	0.0811335323806028	0.889727652606347	0.449223835199165	0.538055734793988	-0.418492036729369	0.731683293132628
419	0.0001	2.31478637695312	-7.54311401367188	-5.19599487304688	0.849290167195627	0.169782571028075	-0.499880076098178	0.0764787427898567	0.89731839596744	0.434707600761367	0.52235736216321	-0.407423090697518	0.749098932959042
420	0.0001	4.35175048828125	-7.61376708984375	-1.05141357421875	0.857765930197189	0.161028235849016	-0.488167508394717	0.0701125340636525	0.904142551432956	0.421438583017122	0.509236528108624	-0.395722319243759	0.764252578989574
421	0.0001	3.0416748046875	-8.02630920410156	-0.822689208984375	0.856685936008872	0.14993227743543	-0.493568150540155	0.0679569994405883	0.915683874350608	0.396112217031098	0.511342403162143	-0.372885175941985	0.774264549292475
422	0.0001	2.08546325683594	-7.16470092773438	4.83255065917969	0.872663485867215	0.133476269771185	-0.469726011459927	0.0619762454672006	0.92386623229811	0.377664043585148	0.484373188184349	-0.358685475350293	0.797951968692893
423	0.0001	3.06023620605469	-4.04399047851563	0.872385864257813	0.867461110555077	0.125572903044795	-0.481396580477526	0.053961376509582	0.938164613688033	0.341958078525389	0.494569905594491	-0.322612156690487	0.807045230972694
424	0.0001	1.18553466796875	-2.76325378417969	5.9396484375	0.872709375827431	0.111452034677836	-0.47534912360187	0.0448397330565863	0.951186657530245	0.305341351401761	0.4861766589238	-0.287788788007125	0.825112034705034
425	0.0001	2.45788879394531	-0.44068359375	11.256591796875	0.878988570753067	0.10461273548136	-0.465226039749053	0.0288431873594374	0.962187291879046	0.270857316477543	0.475969708099611	-0.251499087317578	0.842734267755855
426	0.0001	2.22138061523437	2.50279541015625	6.79586791992188	0.886395093400462	0.0904054742564686	-0.454016066477883	0.0194015050168104	0.972629011522696	0.231552127063142	0.462522777816044	-0.214055264286693	0.860379581250325
427	0.0001	1.39629638671875	3.51828369140625	14.7958319091797	0.88821242014154	0.0852231537959312	-0.451459533915703	0.0027748050509789	0.981631938170069	0.19076435312029	0.459424637087779	-0.17069197995673	0.871661201852654
428	0.0001	3.72245910644531	3.21770874023438	12.339140625	0.897274863262261	0.080422676385577	-0.434085259920988	-0.0112695195193588	0.98711933285408	0.159588284769024	0.441328469155904	-0.138302624084639	0.886623689331505
429	0.0001	3.48355590820313	2.50099914550781	15.1640661621094	0.910515274908661	0.0742144450567223	-0.406760556473865	-0.0155051971664464	0.989196466010089	0.145773593267024	0.413184611304481	-0.126422180720287	0.901829201791055
430	0.0001	-0.307161254882813	3.32488586425781	8.51369567871094	0.921966070672688	0.0584557447894752	-0.382833502229719	-0.00925698966770997	0.991586503462733	0.129114345805737	0.38716000913144	-0.115495160295396	0.91475023655514
431	0.0001	-1.26217529296875	4.42599609375	11.3062884521484	0.922178494253787	0.0594630708994521	-0.382166152262371	-0.0126467199172341	0.9922182241296	0.123867090788625	0.386557738521885	-0.109394418981542	0.915754320702085
432	0.0001	-1.77111694335938	5.14869323730469	6.88268737792969	0.923347866327755	0.0570510357999251	-0.379702379584508	-0.0140159254577502	0.99324875101197	0.115154124749068	0.383708576372154	-0.101005435137505	0.917913738044669
433	0.0001	-0.710123291015625	4.742138671875	14.3311981201172	0.917073503457061	0.0685252356069834	-0.392785541157002	-0.0218674880172619	0.992282152843033	0.122057126449099	0.398118075732321	-0.103346123459972	0.911494145094191
434	0.0001	1.36216735839844	7.54371276855469	10.8045318603516	0.919418627619082	0.074158416803901	-0.386225214614715	-0.0231345839517457	0.99055871783473	0.135122971944061	0.392599259057405	-0.115299417772835	0.912453761047003
435	0.0001	-0.2682421875	5.73607177734375	9.03700744628906	0.919171142804596	0.0803058904451817	-0.385584457927313	-0.0236860512804165	0.988491594006582	0.149409971397724	0.393145496235217	-0.12820036091265	0.910495077554971
436	0.0001	-0.0425115966796875	5.5133349609375	8.56997863769531	0.920328424005878	0.0848299990049421	-0.38183695897029	-0.023040889060266	0.986261622633132	0.163576065340789	0.39046729619543	-0.141745839409427	0.909639163411486
437	0.0001	-0.650247802734375	3.3673974609375	10.2369122314453	0.918790127155405	0.0937101727950699	-0.383462000407438	-0.0234942747499443	0.982673164745966	0.183851761868423	0.394046597873563	-0.159912022071098	0.905072054535662
438	0.0001	-0.69216064453125	3.64641723632813	8.48914672851562	0.919336178778584	0.100086621301653	-0.380530759105242	-0.0218929875781822	0.97862098717394	0.204503448767022	0.392863446357248	-0.179676463954309	0.901872873977914
439	0.0001	-0.835263061523438	2.61596008300781	10.5159320068359	0.916220960900916	0.106806766251056	-0.386175433564585	-0.0192187958529654	0.974421725810339	0.223903859177911	0.400212179589483	-0.197723582184301	0.894838307380972
440	0.0001	-1.13943054199219	1.69327880859375	10.4949755859375	0.913638146354538	0.11766490119575	-0.389127625018372	-0.016637143035632	0.967217011382849	0.25340571888425	0.406187817391728	-0.225047159320499	0.885643965193869
441	0.0001	-0.176033935546875	1.29989685058594	9.09987670898438	0.912537575941975	0.128890349891394	-0.388152611995356	-0.0142344504336829	0.958478723595973	0.284808561729954	0.408745095279191	-0.254373375412421	0.876482534319137
442	0.0001	0.908311157226563	-1.25439147949219	4.88823486328125	0.909745308275479	0.139219030083686	-0.391128541189865	-0.00931484120456652	0.948707207138379	0.316018779279065	0.415062293883807	-0.283853301524316	0.864378733779157
443	0.0001	0.149089965820313	-2.44232116699219	5.37202880859375	0.906826171256329	0.146319037501784	-0.395293605297555	-0.00221703463929539	0.939457964238061	0.342656997866798	0.421498967830285	-0.3098539538141	0.852249463140796
444	0.0001	0.65863037109375	-4.50203796386719	8.77175903320312	0.90325751663289	0.162354899368218	-0.397198621973088	0.00261421260754487	0.923558248601518	0.383449250009099	0.429090928054447	-0.347391778963224	0.833786499872803
445	0.0001	0.549656982421875	-4.44874877929688	7.42515930175781	0.89873285348369	0.184215327366699	-0.397924579829199	0.00326322872233685	0.904639841807905	0.426164414225397	0.438484446026732	-0.384306478968218	0.812428409655694
446	0.0001	-0.061072998046875	-5.48160095214844	3.64581848144531	0.896391741189113	0.20103703780387	-0.39505183933124	0.00873570021216608	0.883051067132314	0.469195588617674	0.443176639580375	-0.42403410507591	0.789803484331842
447	0.0001	1.39090759277344	-6.4521826171875	-1.41246276855469	0.889862735479485	0.220258812066817	-0.39953769247955	0.015109707486844	0.861032057799616	0.508326167122076	0.455978079236964	-0.458377411254387	0.762872296067367
448	0.0001	-0.441282348632813	-8.49872680664063	0.1916015625	0.886051194376321	0.238263604920857	-0.397672900150883	0.0190764370514315	0.838350696769265	0.544797392409244	0.463194743594656	-0.490304562284104	0.738276415517708
449	0.0001	0.085023193359375	-7.58682312011719	-3.91226440429688	0.883034382201475	0.260190795037715	-0.390577815585707	0.0202919418110313	0.810295283773067	0.585670376741614	0.468869402869923	-0.525092661606281	0.710238818834647
450	0.0001	0.0341290283203125	-6.21148315429688	-8.81127685546875	0.874754482445275	0.285130218378166	-0.39179759316453	0.0190935519618136	0.787643075950843	0.615835871949804	0.484190078084403	-0.546185997142286	0.683550162614498
451	0.0001	2.46088256835937	-5.7719970703125	-9.01185974121094	0.867424302305031	0.3075833196331	-0.391110702044975	0.015898323532042	0.768508315158573	0.639642253795825	0.497315114469188	-0.561059240201616	0.661732729963453
452	0.0001	2.85905456542969	-5.53489013671875	-11.3440100097656	0.859367433295111	0.312694147760666	-0.404610905127387	0.026160483504677	0.763326825754646	0.645482599444894	0.510688989204364	-0.565291541631012	0.647797984919573
453	0.0001	2.01600769042969	-6.045029296875	-8.66338439941406	0.858005497418456	0.313167570007212	-0.40712730133889	0.0342463964557336	0.755988157148839	0.653688833146551	0.512497561681522	-0.574811255410401	0.637917134057405
454	0.0001	-0.641865234375	-6.81802185058594	-10.9823620605469	0.859598790835268	0.311993450172363	-0.404660358626949	0.036003558951635	0.752995177337875	0.657040338676948	0.509699580672147	-0.579360293733914	0.636040869368621
455	0.0001	-0.906514892578125	-5.949228515625	-8.25742858886719	0.861718501482217	0.313369236777171	-0.399050054059559	0.0323462400195509	0.75095263168354	0.659563390224293	0.506354564470235	-0.581265745085034	0.636973459910929
456	0.0001	-0.132324829101563	-6.17615661621094	-8.08977722167969	0.860798060109766	0.317661511510298	-0.397640369952871	0.0287643029728974	0.749686731125506	0.661167467476158	0.508133166193417	-0.580569521486743	0.636191571882957
457	0.0001	0.940045166015625	-7.40180786132813	-7.36109252929687	0.861369499836549	0.319190373988435	-0.395170962881203	0.0264907724521717	0.748643789192854	0.662442990662482	0.507287712965948	-0.581076571594561	0.636403326686536
458	0.0001	1.26397155761719	-6.92998901367188	-6.81023803710938	0.865373220740644	0.318530967828606	-0.386868467775724	0.0216502453067373	0.747510575067601	0.663896985262219	0.500660020076622	-0.582894469605156	0.639979360292659
459	0.0001	1.93697204589844	-7.75267822265625	-6.34859802246094	0.865090145639877	0.31967347127048	-0.386559066227477	0.0183935881275603	0.74989274674844	0.661303670252838	0.501279079787468	-0.579197496662375	0.642844883333039
460	0.0001	2.62314514160156	-8.23168212890625	-4.014052734375	0.867494412208435	0.320120590582653	-0.380757471722035	0.0132362419446294	0.750298021757803	0.660967230992211	0.497270798143553	-0.578425177556563	0.646642147777527
461	0.0001	2.37526062011719	-7.59580444335938	-7.35690124511719	0.870713863818311	0.316862383583085	-0.376105832478884	0.00951148233998325	0.753776053930347	0.657062548183117	0.491697975446599	-0.575690794082414	0.653309429405757
462	0.0001	2.55249206542969	-7.06890014648438	-3.81825988769531	0.874219165974082	0.312816272697174	-0.371331158643372	0.0028530475120592	0.761470249034438	0.648193582161475	0.485523130204397	-0.567722678225275	0.664799406336412
463	0.0001	2.47225891113281	-7.57065673828125	-4.38767578125	0.876513743513578	0.306755294131339	-0.370978229757771	-0.00320752907791061	0.774365418058617	0.632730520104821	0.481366148777651	-0.55340707335315	0.679725857955745
464	0.0001	2.73391479492187	-7.99756896972656	-0.492775268554688	0.876987629287064	0.301667530194584	-0.374017913078713	-0.00873180581640243	0.788248623008959	0.615294940570509	0.480433610028109	-0.536340199454395	0.693918393476192
465	0.0001	2.73451354980469	-8.13887512207031	-1.29091552734375	0.877187094575178	0.295684382709749	-0.378303511657389	-0.0141436974098127	0.803458550705325	0.59519266890821	0.479940368102473	-0.516744717554087	0.708965542142642
466	0.0001	2.26329345703125	-6.80544799804688	2.49920288085938	0.87760039044516	0.29024672031865	-0.381542128781045	-0.0236570609347741	0.821136936653785	0.570240716479249	0.47880883258189	-0.49141731004016	0.727496480565
467	0.0001	4.28888122558594	-6.56953857421875	7.10961547851563	0.880017503097022	0.290858535681676	-0.375460392670112	-0.0363982887067173	0.829518049687776	0.557292535228503	0.473544463405608	-0.476761069576052	0.740577155814702
468	0.0001	3.84400634765625	-5.07923767089844	3.79131591796875	0.887511755781159	0.29193563093767	-0.356505919641273	-0.0567881174745122	0.837092473110561	0.544105965024595	0.457272340147473	-0.462655140305033	0.759507885466231
469	0.0001	4.02962036132813	-5.55764282226562	3.31590454101563	0.891063101432998	0.288518089432299	-0.350376742000584	-0.0640183429336065	0.844134861877234	0.532295018510919	0.449341964468758	-0.451877911646321	0.770647878043869
470	0.0001	1.29989685058594	-4.27211608886719	5.03133728027344	0.893981327220408	0.282471697637224	-0.347860786256776	-0.069320694426081	0.854127507964196	0.515422973356017	0.442709868769066	-0.436664562533779	0.783155177421218
471	0.0001	3.72784790039063	-3.14466064453125	6.03664672851562	0.891954612767257	0.27748950124854	-0.356954542568167	-0.0747730463138892	0.86916767081946	0.488831823378159	0.445899047216019	-0.409325221186176	0.796006848584065
472	0.0001	1.75435180664063	-1.84656005859375	11.8325939941406	0.893684259489612	0.272783708983586	-0.356254813937528	-0.084213367745848	0.881839384894819	0.463969188568842	0.440722762100401	-0.384640543054792	0.811058012478213
473	0.0001	5.08462646484375	-1.32743957519531	8.19695434570312	0.895006717247304	0.26791435843198	-0.356629881849776	-0.0945870840847833	0.895335376444026	0.435233095262956	0.435908545002898	-0.35580396320701	0.826672414055073
474	0.0001	3.4823583984375	0.67779052734375	12.1643041992188	0.898891337130994	0.259770903497499	-0.352864622379387	-0.102728668649568	0.907806078929702	0.406613998401147	0.425959134974637	-0.32925248784842	0.842704939214958
475	0.0001	2.0261865234375	1.29091552734375	8.05864196777344	0.901210715282119	0.253001145679799	-0.351865978670005	-0.111391042823304	0.919857500359905	0.376103994408946	0.418821301081295	-0.299754231523654	0.857167497309736
476	0.0001	2.68900817871094	2.68302062988281	12.0050354003906	0.904368184537455	0.245774407871239	-0.348874085067909	-0.118918866534268	0.930263926785085	0.347084038389264	0.409849350345507	-0.272404050920571	0.870528312614489
477	0.0001	0.116757202148438	4.22361694335938	12.4900268554688	0.900060829187359	0.251296757327685	-0.356006240842986	-0.131545685494067	0.935543181703858	0.327802818467626	0.415434996588467	-0.248211391608069	0.875102776070061
478	0.0001	0.973575439453125	4.72836730957031	7.09045532226563	0.893454984743976	0.260419507588063	-0.365950639162896	-0.147225230106269	0.939545422793594	0.309158745837415	0.424338216351412	-0.22234225548734	0.877781863317137
479	0.0001	1.42563537597656	4.98463439941406	7.67603759765625	0.889942314564974	0.265846544081254	-0.370578320664864	-0.161295571276949	0.943491826487775	0.28949423489459	0.426598658499038	-0.197860527520816	0.882533170037254
480	0.0001	4.68705322265625	6.41925109863281	15.3730316162109	0.88997469339034	0.27364376103549	-0.364779573401695	-0.173483921996176	0.942964003252744	0.284116555973748	0.421720729788797	-0.189573153732037	0.88668689256721
481	0.0001	0.690364379882813	7.86763916015625	5.18162475585938	0.893037081346542	0.271884368511898	-0.358557751971613	-0.177142929193636	0.944899261599225	0.275292150389253	0.41364858754352	-0.182330128031894	0.891992472185233
482	0.0001	0.463436279296875	8.20952819824219	11.7056579589844	0.894651366115699	0.278276431186484	-0.349515609026876	-0.185604161507652	0.943123913728621	0.275804964756347	0.40638655039058	-0.181877736953489	0.895416361511404
483	0.0001	-1.70764892578125	8.30772399902344	6.34380798339844	0.896383976219932	0.286821443663582	-0.337978145197118	-0.195627015695871	0.94015134212073	0.279008108553351	0.397776115303663	-0.183980741827317	0.898846621360173
484	0.0001	-0.161065063476563	6.03365295410156	10.6805895996094	0.894095989678441	0.304020741302971	-0.328882577979622	-0.204299094063698	0.930317084774827	0.304584966701937	0.398565228545695	-0.205137784509972	0.893903936651281
485	0.0001	-1.88667663574219	8.00295776367188	5.18461853027344	0.884421302332949	0.326969484138643	-0.333001376005866	-0.216958607960093	0.919809019143626	0.326925573692329	0.413192355219344	-0.216892426663888	0.884437534732748
486	0.0001	-0.362845458984375	3.76556945800781	9.67767517089844	0.882700206670868	0.341704023012085	-0.322612315016899	-0.224373158434824	0.909646750514429	0.349570415013231	0.412912861167084	-0.236180333507888	0.879614585569677
487	0.0001	0.568218383789063	3.02550842285156	6.96292053222656	0.877832594006351	0.359616888846343	-0.316363130210456	-0.231104009339655	0.896551465174308	0.377870886892519	0.41952458064721	-0.258594593041461	0.8701310031728
488	0.0001	0.965791625976563	1.27953918457031	7.71076538085938	0.869934645896852	0.3765846306022	-0.318430098863981	-0.230880512843397	0.881546518644753	0.411788688837474	0.435784236357271	-0.284709942677667	0.853833911181203
489	0.0001	2.12797485351563	1.21247863769531	9.93214599609375	0.866563214878829	0.38985347398994	-0.311580588992389	-0.230422634427844	0.866339496144559	0.443126716598451	0.442689060359753	-0.312202091982048	0.840569003473143
490	0.0001	1.71243896484375	-1.83338745117188	8.13648010253906	0.863706119702904	0.399200903847012	-0.307653014214849	-0.223383886274321	0.850411992534543	0.476339251276241	0.451786872474992	-0.342692400442667	0.823681091526392
491	0.0001	0.899928588867188	-2.87941223144531	6.98267944335938	0.862861115297062	0.404402698122407	-0.303198208206492	-0.21247743607885	0.83450909791879	0.508377718481176	0.458610984240094	-0.374236587257427	0.80599189939617
492	0.0001	1.94535461425781	-4.75950256347656	6.43242370605469	0.858869673840939	0.413992515775447	-0.301584283805168	-0.202548863701947	0.815336388309704	0.542402555037435	0.470443239051652	-0.404767551540391	0.784121411549632
493	0.0001	3.67036743164063	-5.4750146484375	3.87334533691406	0.863589639367015	0.414088578862722	-0.287651844481136	-0.193162746871716	0.798710586833107	0.569868012527188	0.465726408955861	-0.43656849100246	0.769744674983149
494	0.0001	1.35198852539062	-7.60658203125	2.75487121582031	0.8610212420682	0.414128659689094	-0.295194637369057	-0.172229082935506	0.783584971666499	0.596935285579272	0.478518091297006	-0.463132859342248	0.746008304845827
495	0.0001	-0.580792236328125	-7.49700988769531	2.38364318847656	0.862026078721583	0.412776797284372	-0.294153625215717	-0.156162482918644	0.768396623068656	0.620628639836553	0.482207754533849	-0.489062312267407	0.726838177441913
496	0.0001	2.4908203125	-7.884404296875	0	0.863210343255595	0.413511775939644	-0.289613387908431	-0.146486657235053	0.754145467400756	0.640161130693668	0.48312478983039	-0.510169212279746	0.711560125564387
497	0.0001	-1.31785949707031	-8.813671875	-0.774788818359375	0.854580078055725	0.426502670125131	-0.296291009931798	-0.14164083864904	0.740328796633014	0.657153821949405	0.499630626580345	-0.51962365732523	0.69308043669612
498	0.0001	2.47405517578125	-10.2309246826172	-1.11548034667969	0.854706901527777	0.428347970552614	-0.293247555154762	-0.131051096511951	0.724652654691369	0.676538350835906	0.502296448906224	-0.539811583955188	0.675501096404727
499	0.0001	1.25259521484375	-9.06574768066406	-4.87566101074219	0.851207332680834	0.437245175281938	-0.290280439373801	-0.126884085773144	0.708134794238991	0.694582998615439	0.509260744185032	-0.554402173409132	0.65824898370703
500	0.0001	2.19683166503906	-9.20465881347656	-4.75531127929688	0.848043537403798	0.443886104073909	-0.2894603345499	-0.122045058952508	0.695141976434575	0.708436755246304	0.515681260327474	-0.565458008351389	0.643684766433344
501	0.0001	2.0357666015625	-8.66218688964844	-6.428232421875	0.84567309996749	0.447134596829006	-0.291389190447994	-0.115733273051405	0.686625890869106	0.717739991568685	0.5210017442391	-0.573249978898184	0.632409396034758
502	0.0001	1.48371459960938	-8.33167419433594	-6.543193359375	0.845377188690307	0.448379035210654	-0.290333686687641	-0.115121182462858	0.683680653177055	0.720644071521961	0.521617218073203	-0.57579250190929	0.629585953269777
503	0.0001	1.1879296875	-7.74908569335938	-5.97557373046875	0.844179592546881	0.44931287575395	-0.292367500261395	-0.115397571775407	0.684931692159784	0.719410854452082	0.523492326549035	-0.573573462388952	0.630054971639323
504	0.0001	2.29682373046875	-7.93050842285156	-5.11755798339844	0.84291380117417	0.448188303034639	-0.297697109178175	-0.116113046763002	0.691777076578238	0.71271469515668	0.525370425663193	-0.566190534487991	0.635148954572609
505	0.0001	1.71842651367188	-7.00662963867188	-3.80927856445313	0.844637956782991	0.441885643296563	-0.302198279627528	-0.116529147509908	0.702724751455367	0.701853888977333	0.522501368172438	-0.557597526842054	0.645040555560312
506	0.0001	1.78249328613281	-7.64310607910156	-1.67531616210938	0.846592323931049	0.435593241344662	-0.305843040064471	-0.119662203478232	0.715694140593437	0.688086371162049	0.518615844454988	-0.545930787934765	0.65802521278836
507	0.0001	1.57532409667969	-6.90124877929688	-0.19878662109375	0.846183492698201	0.42388768227334	-0.32294384883755	-0.11513931119857	0.737139141768287	0.665859463167591	0.520304176133339	-0.526255753878331	0.672561109348555
508	0.0001	2.01960021972656	-7.01082092285156	5.50974243164063	0.854360323743318	0.413667667893647	-0.314559211838797	-0.127592324166842	0.753737515301966	0.644670424977074	0.503774390006992	-0.510645492064553	0.6967442467701
509	0.0001	0.636476440429688	-6.10969482421875	6.14442260742188	0.859189130723934	0.395196308025271	-0.324982946889597	-0.12505232745477	0.778087615603501	0.615582307935018	0.49614106163872	-0.488261754152067	0.717944640197523
510	0.0001	0.0999920654296875	-4.04578674316406	7.57125549316406	0.871543023899243	0.383578625869522	-0.305418066375603	-0.143540972017136	0.795207360271344	0.589102065454414	0.468837655105623	-0.469587789392282	0.74811667620013
511	0.0001	-2.51237548828125	-2.05372924804688	5.99952392578125	0.860394138443658	0.372720891310081	-0.347564474181145	-0.123744693857979	0.814376283118953	0.566990758509656	0.494377565504132	-0.444826265719976	0.746806813072718
512	0.0001	1.83099243164063	-1.80524597167969	13.1588360595703	0.866171366288302	0.362401449357768	-0.34411096135643	-0.128500112444598	0.82692721762002	0.547429536891222	0.482943977417653	-0.429949492687922	0.762829304899475
513	0.0001	0.7807763671875	-0.988544311523438	8.5693798828125	0.869569907429927	0.356710057769395	-0.341476369282655	-0.134839865888878	0.836755755562572	0.530714627742612	0.475043562907002	-0.415448841879557	0.775716361256843
514	0.0001	0.0987945556640625	0.109572143554688	7.58382934570313	0.873031052345115	0.348986457455224	-0.340624770317771	-0.138117675931379	0.846829453976768	0.513617935310601	0.467696791988673	-0.401358104926589	0.787509607797417
515	0.0001	0.3496728515625	0.413739624023438	10.8548272705078	0.880897670306036	0.341381639154193	-0.327838177913731	-0.146293748042724	0.855121619336279	0.497358176194292	0.450130463013792	-0.390160982918713	0.803216641806488
516	0.0001	0.0065863037109375	0.576002197265625	9.11364807128906	0.884062641545251	0.332974207165766	-0.327965582319796	-0.144218649603932	0.861838884945778	0.486245532115038	0.444560712310987	-0.382572756162468	0.809940651721965
517	0.0001	-2.06091430664063	1.32324829101563	11.6930841064453	0.882639293595582	0.325967972448772	-0.338663193067578	-0.133325758394633	0.864505160700041	0.484618478054121	0.450746180848587	-0.382590784076973	0.806506151489113
518	0.0001	-1.95253967285156	2.0070263671875	14.9808471679688	0.884590082423872	0.326012145787743	-0.333491329536765	-0.132341954775924	0.861158691639223	0.490806799892086	0.447197935016939	-0.390027933119019	0.804917522671417
519	0.0001	-1.20469482421875	0.883163452148438	8.32089660644531	0.887391705315102	0.330404232425661	-0.321510504545599	-0.139487502658444	0.857133397818997	0.495848338653435	0.439407780927997	-0.39516500545781	0.806700328821962
520	0.0001	-1.68489624023438	0.875379638671875	5.37861511230469	0.886131561327776	0.333304931189833	-0.32199173725942	-0.141601910688704	0.85629822074476	0.496691308599886	0.441270614145229	-0.394539199565644	0.805989494409198
521	0.0001	-1.63939086914063	0.803529052734375	9.91118957519531	0.884611177866734	0.337383144513736	-0.321924956769826	-0.144913676468116	0.855043736265559	0.497895807820801	0.443241571116389	-0.393792867978913	0.805272678515308
522	0.0001	-0.373024291992188	0.928668823242188	9.85909790039063	0.884830766672116	0.338787759513331	-0.319839597852381	-0.146856191441348	0.85428806692187	0.498623262343663	0.442162609665016	-0.394226778287362	0.805653445282393
523	0.0001	-0.590971069335938	1.08374633789063	8.42867248535156	0.884244334231316	0.337050070660047	-0.323278838230829	-0.142568149691051	0.853976973132964	0.50039749405081	0.444731694478241	-0.396384383177136	0.803176904984073
524	0.0001	-0.444874877929687	1.23343505859375	9.59325073242188	0.883997990547077	0.340264225786341	-0.32057418698135	-0.147105991764402	0.853364935852307	0.500128097035949	0.443742470241179	-0.394953849085954	0.80442779489302
525	0.0001	-0.655636596679688	0.703536987304688	8.91126892089844	0.884842800978131	0.342637465174059	-0.315678293546248	-0.150773044275233	0.851718130569631	0.501840328370441	0.440818224075587	-0.396454024469507	0.805297150004132
