// Start Time: Unknown
// Update Rate: 100.0Hz
// Filter Profile: human (46.1)
// Option Flags: AHS Disabled ICC Disabled 
// Firmware Version: 4.0.2
PacketCounter	SampleTimeFine	Acc_X	Acc_Y	Acc_Z	Mat[1][1]	Mat[2][1]	Mat[3][1]	Mat[1][2]	Mat[2][2]	Mat[3][2]	Mat[1][3]	Mat[2][3]	Mat[3][3]
1	0.0001	-9.06275390625	3.18597473144531	-2.21239929199219	0.326458061253416	0.945141885187753	0.0114869972752211	0.216470028687415	-0.0629292555159667	-0.974259018680492	-0.920090137390207	0.320541301026788	-0.225138653752134
2	0.0001	-9.11304931640625	3.142265625	-2.14473999023437	0.325365313947073	0.94552700241141	0.0107749798615757	0.21629948730637	-0.0633282810525927	-0.974271040629827	-0.920517215629955	0.31932462562386	-0.225121831902322
3	0.0001	-8.99808837890625	3.12490173339844	-2.21479431152344	0.324674341512891	0.945760468134281	0.0111224492625275	0.216648184604952	-0.0629169793238382	-0.974220210127127	-0.920679171085427	0.318713963652662	-0.225324817324369
4	0.0001	-9.1441845703125	3.12609924316406	-2.05612426757813	0.324203511512023	0.94593134343752	0.0102944949250216	0.216462699033186	-0.0635869462266428	-0.97421794286332	-0.92088869199841	0.318073252210961	-0.225373962953577
5	0.0001	-8.94539794921875	3.13867309570313	-2.29861999511719	0.324188765583807	0.945941218344781	0.00984152963919988	0.216798335287437	-0.0641656127570607	-0.974105361835211	-0.920814924990817	0.317927642044385	-0.225880252209558
6	0.0001	-8.91126892089844	3.29854064941406	-2.08546325683594	0.323757433742601	0.946087012040141	0.0100244573600343	0.216771507099159	-0.0638590812889633	-0.974131475442042	-0.920972984297783	0.317555323346795	-0.225759559726156
7	0.0001	-9.04239624023437	3.0799951171875	-2.24712707519531	0.323037498746311	0.9463398977492	0.00935800896352357	0.217048975444891	-0.064458843047183	-0.974030184240377	-0.921160418527658	0.316679420678156	-0.22622472865913
8	0.0001	-8.87773864746094	3.20214111328125	-2.20581298828125	0.321729072109617	0.946772029668359	0.0106361645879502	0.217551862098151	-0.0629855758793041	-0.974014375935376	-0.921499642678776	0.315682658802807	-0.226236308920736
9	0.0001	-9.02383483886719	3.036884765625	-2.07767944335938	0.319385753813816	0.9475415649439	0.0125587803725551	0.218249676931133	-0.0606553952416041	-0.974006160939211	-0.922149564214091	0.31382464168983	-0.226173109559941
10	0.0001	-9.30045959472656	2.66865051269531	-2.270478515625	0.316632552088766	0.948464544517594	0.0126029659520416	0.219647246239	-0.0603879739191281	-0.973708570274272	-0.922766988018849	0.311076036362456	-0.2274484236561
11	0.0001	-9.05497009277344	2.60158996582031	-2.62314514160156	0.315160567932327	0.948978550883741	0.0106548760278171	0.219835052020581	-0.0620774615233065	-0.973559930704798	-0.923226064582062	0.309170015902929	-0.228183117129425
12	0.0001	-9.28908325195312	2.7973828125	-2.86743713378906	0.314459662085175	0.949236581769781	0.0080642886419271	0.220092052322301	-0.0646422818609534	-0.973334918668988	-0.923403817095119	0.307849455458072	-0.229246817531527
13	0.0001	-9.06275390625	2.93210266113281	-2.38903198242188	0.313475691615227	0.949558387988487	0.00847694326170523	0.220129169401797	-0.0639812574224385	-0.973370200631352	-0.923729473138554	0.306993919319831	-0.229082068167326
14	0.0001	-9.02503234863281	2.37166809082031	-1.99385375976563	0.312633031664764	0.949834350509483	0.0086772175452462	0.21938062823464	-0.0633138198950576	-0.973582816285123	-0.924193014184523	0.306277760868341	-0.22816924799368
15	0.0001	-8.83402954101563	2.47225891113281	-1.93757080078125	0.312455452084744	0.949899506073841	0.00790688454390109	0.219513507381396	-0.0641023916014807	-0.973501260126605	-0.924221515947144	0.305911444296618	-0.228544913985678
16	0.0001	-8.78193786621094	2.64350280761719	-2.078876953125	0.311295635909064	0.950275864570397	0.00841476553190063	0.221257936590098	-0.0638635991208747	-0.973121968821597	-0.924196923041764	0.304790455759877	-0.230136536685991
17	0.0001	-9.25016418457031	2.4572900390625	-2.59560241699219	0.309554342437987	0.950858007903499	0.00671996157541715	0.223516877194827	-0.0658938109763934	-0.972470159585414	-0.924238234811165	0.302534385617233	-0.232930527909815
18	0.0001	-9.43577819824219	2.46986389160156	-2.57644226074219	0.308279942341122	0.951282881064155	0.00493531604215625	0.225139104930521	-0.0679177127397446	-0.971956566790557	-0.924270447748514	0.300745847004547	-0.23510864494586
19	0.0001	-9.51900512695313	2.60638000488281	-2.44411743164063	0.306054398536275	0.952006635814024	0.00375106686998083	0.226333777265007	-0.0689342710296083	-0.971607476065603	-0.924718187560704	0.298213734834063	-0.236568894723644
20	0.0001	-9.40105041503906	2.37705688476563	-2.68421813964844	0.302927967619789	0.953007136825739	0.00347038801171445	0.227168581158613	-0.0686715458239608	-0.971431240247363	-0.925542587981842	0.295062054411196	-0.237295810916497
21	0.0001	-9.42799438476563	1.89146667480469	-2.50638793945313	0.300006976933636	0.953933248067509	0.00267806320188607	0.227260305256225	-0.0687450557071211	-0.971404586653096	-0.926471028929663	0.292036770882019	-0.237415157491711
22	0.0001	-9.52559143066406	1.96271850585938	-2.75726623535156	0.297427399334223	0.954743951568221	0.000963882347312539	0.226713371065534	-0.0696463038115922	-0.971468187716657	-0.927436245520619	0.289159781624766	-0.237167938780383
23	0.0001	-9.18010986328125	1.74058044433594	-2.57105346679687	0.295681833747618	0.95528615653239	-0.000782514677508561	0.226494326480274	-0.0709006557021686	-0.971428544512281	-0.928047721436723	0.287056538261328	-0.237330930511659
24	0.0001	-9.23399780273438	1.68369873046875	-2.88659729003906	0.294703010499517	0.955575624638798	-0.00503599033875618	0.226400880482368	-0.0749409111485556	-0.971147002854374	-0.928381805573187	0.285059792731972	-0.238428474910768
25	0.0001	-9.18968994140625	2.03277282714844	-2.81055541992187	0.294127805863612	0.95574983284375	-0.00557591579935085	0.227300294298364	-0.0756148788133167	-0.97088463079499	-0.928344445790319	0.284296758900259	-0.239482656677
26	0.0001	-9.12322814941406	1.70106262207031	-2.63571899414063	0.292760728464609	0.956163699685695	-0.00649116878813333	0.22813989368205	-0.0764418045244483	-0.970622913098485	-0.928570592243592	0.282679376545956	-0.240518243166657
27	0.0001	-9.17591857910156	1.86392395019531	-2.7255322265625	0.29066434093906	0.956808309046489	-0.00566574320469471	0.229470615061972	-0.0754559551610199	-0.970386333196124	-0.928901220652413	0.280756582416757	-0.241491746650108
28	0.0001	-9.49625244140625	1.26756408691406	-2.634521484375	0.288771967865534	0.957383342350553	-0.00528075418399881	0.229966427795384	-0.0747160608739379	-0.970326209238168	-0.929368706521851	0.278988612737449	-0.241741931200889
29	0.0001	-9.13759826660156	1.51065856933594	-2.59859619140625	0.287603882496444	0.957726977097572	-0.00656080121014785	0.231127780770362	-0.0760518128176115	-0.969946426728468	-0.929442820042815	0.277443974716882	-0.243230107437707
30	0.0001	-9.25974426269531	1.66872985839844	-2.68840942382813	0.28653476079153	0.958046499590235	-0.00668845879403063	0.232238341675327	-0.0762279674423497	-0.969667288112527	-0.929496198762553	0.276290067868005	-0.244337092729406
31	0.0001	-9.37710021972656	1.45976440429688	-2.93090515136719	0.284871419183224	0.958536381584653	-0.007501980480912	0.232614332818466	-0.0767197098419937	-0.969538373809505	-0.929913354404568	0.274448704315325	-0.244824553506554
32	0.0001	-9.87885681152344	3.01712585449219	-1.65974853515625	0.284143817102471	0.958748632506389	-0.00795932594926108	0.230344708546537	-0.0763207961078013	-0.970111566432481	-0.930700599788702	0.273817814885373	-0.242528756654445
33	0.0001	-9.12622192382813	1.07895629882813	-2.87581970214844	0.282663106235212	0.959178693681904	-0.00882054194123	0.232025185840713	-0.077292852481798	-0.969634017601904	-0.930734055200004	0.272033175443552	-0.244401452428281
34	0.0001	-9.23699157714844	1.36575988769531	-2.35550170898438	0.282508252585675	0.95924685330174	-0.00587891586087225	0.234624119632373	-0.0750390894570956	-0.969185564038272	-0.930129351062379	0.272423584669464	-0.246261610504189
35	0.0001	-9.09688293457031	1.62502075195313	-2.76445129394531	0.280948630767092	0.959714513169337	-0.00398999777419834	0.236750657539826	-0.0733345982140514	-0.96879882476149	-0.930062897348645	0.271238068708885	-0.247816296999447
36	0.0001	-9.52619018554688	1.04003723144531	-2.53213439941406	0.279621262263576	0.960101651778081	-0.00409486790085434	0.237290993911323	-0.073240367989892	-0.96867374936316	-0.930325176429565	0.269890101244388	-0.248303039352306
37	0.0001	-9.3932666015625	1.09991271972656	-3.22249877929688	0.278454367192669	0.960442793962671	-0.00357839580112196	0.237802519387124	-0.0725531856058086	-0.968600019116036	-0.930544532606832	0.268859953848891	-0.248598467517209
38	0.0001	-9.12322814941406	1.57532409667969	-2.91174499511719	0.277368414805242	0.960760953856764	-0.00226980454403503	0.238611514750008	-0.0711744275606193	-0.968503353577118	-0.930661757835323	0.268090638414807	-0.248990164659585
39	0.0001	-9.42320434570312	0.940643920898438	-2.40519836425781	0.27576905326811	0.961223304046603	0.00109042071855231	0.239061969111727	-0.0674865556962722	-0.968656254676899	-0.931021376867381	0.267386096418618	-0.248402639394148
40	0.0001	-9.28908325195312	1.19391723632812	-3.01413208007813	0.275063935020433	0.961425270121578	0.00113208777270057	0.240001072827894	-0.0675240224098355	-0.968421391460895	-0.930988354756672	0.26664950097318	-0.249316519585484
41	0.0001	-9.34177368164062	1.59448425292969	-2.50099914550781	0.274194628771455	0.961672513435894	0.00181175461188587	0.239916711782629	-0.066581060343109	-0.968507580667802	-0.931266490839381	0.265994246752588	-0.248977476359264
42	0.0001	-9.48846862792969	1.28792175292969	-2.60997253417969	0.273412067108037	0.961896989302055	0.000153399328175097	0.238927849456198	-0.0677589851688612	-0.96867032714083	-0.931750677120198	0.264882807861381	-0.248350103252492
43	0.0001	-9.9105908203125	2.39921081542969	-5.09241027832031	0.272301117758389	0.962189258185807	-0.00662817466412191	0.239071715195471	-0.0743269391276891	-0.968152994682867	-0.932039063699064	0.262044533527709	-0.250271544901168
44	0.0001	-9.14238830566406	1.0490185546875	-2.22197937011719	0.270848968862614	0.962602134676332	-0.00616168667072009	0.239557295409409	-0.0736014405323741	-0.968088389646157	-0.932337459443837	0.260729665109532	-0.250533238213382
45	0.0001	-9.10646301269531	1.42144409179688	-2.38484069824219	0.271285742784189	0.962496545220517	-0.0021086015745152	0.241494836668716	-0.0701872008911364	-0.967860527500434	-0.931710410816785	0.262057545721615	-0.251478732909927
46	0.0001	-9.29207702636719	1.53041748046875	-2.86085083007813	0.270491032597664	0.962719883334449	-0.00224221246886247	0.241776217837546	-0.0701847877097393	-0.967790450491381	-0.931868478795383	0.261236524641262	-0.251747127929861
47	0.0001	-9.94950988769531	1.4897021484375	-3.51708618164063	0.267893159973621	0.963443559229648	-0.0031245828931602	0.242312038295022	-0.0705149613799808	-0.967632428310922	-0.932479560599941	0.258464984863498	-0.252344448448647
48	0.0001	-9.41362426757813	0.952020263671875	-3.08059387207031	0.266535873479003	0.963804173347869	-0.00633589662284517	0.239779006961346	-0.0726740069407526	-0.968103567050451	-0.933522713151328	0.256515114861495	-0.250470237509726
49	0.0001	-9.39386535644531	1.30109436035156	-2.15731384277344	0.266395312988443	0.963784723634404	-0.0123508585428401	0.236164170364858	-0.0776896527858116	-0.96860249973139	-0.934483826427011	0.255114335816269	-0.248307579037283
50	0.0001	-9.27531188964844	1.24780517578125	-2.65607666015625	0.267033647460365	0.963529616498292	-0.0174272560854366	0.234095469078697	-0.0823985265867843	-0.96871553831512	-0.934822091352594	0.254600001859743	-0.247561096645214
51	0.0001	-9.47050598144531	1.56035522460938	-2.11779602050781	0.266910476036466	0.963445725259307	-0.0230463068962309	0.230308432208576	-0.0869885200879189	-0.969221864913572	-0.935797426709229	0.253387710539565	-0.245107821808899
52	0.0001	-8.78193786621094	0.616118774414062	-2.01780395507813	0.267989531781432	0.96289149077218	-0.03196228799846	0.227683652019545	-0.0955346323461129	-0.969037299914475	-0.936131275761371	0.252414561824433	-0.2448369325089
53	0.0001	-9.51241882324219	1.45736938476563	-2.60278747558594	0.269026019744162	0.962407971333828	-0.0373617105298936	0.228078511099827	-0.101348289147723	-0.968353611580664	-0.93573778029697	0.251990914518629	-0.246769904009717
54	0.0001	-9.71060668945313	1.76393188476563	-1.79925842285156	0.271758201329888	0.961230447010054	-0.0467280189051041	0.222344363204428	-0.10995447231189	-0.968748160343973	-0.936328181868495	0.252875545989456	-0.243605201256814
55	0.0001	-9.14059204101563	1.31606323242188	-1.85015258789063	0.272822674653729	0.960687499809842	-0.0514520738542194	0.220380616225416	-0.114465044181254	-0.968674422937186	-0.936482873408207	0.252937307192312	-0.242945562716034
56	0.0001	-9.61600341796875	1.81183227539063	-2.18545532226562	0.274191040266228	0.960186413296658	-0.0534913559205908	0.220663147248893	-0.116956665745935	-0.968312405055211	-0.936016585795325	0.253699014696733	-0.243946225750614
57	0.0001	-7.711962890625	3.71287902832031	-2.50279541015625	0.273143272315825	0.960882682894788	-0.0457954419294984	0.227739874813964	-0.110843688882972	-0.967392488111488	-0.934626825106322	0.253807301604445	-0.249107509810417
58	0.0001	-9.84412902832031	0.963396606445313	-1.97648986816406	0.269931817233297	0.962016673810951	-0.0407520963245518	0.229543563961761	-0.105395081961788	-0.967575128319244	-0.935118477140123	0.251824931267703	-0.249274221898602
59	0.0001	-9.52020263671875	1.29570556640625	-2.44531494140625	0.269224862791362	0.962295595132724	-0.0387964024508482	0.231167074067571	-0.103675595462972	-0.967374361233766	-0.934922326785498	0.251472778832132	-0.250363105078275
60	0.0001	-9.44655578613281	1.46754821777344	-2.54291198730469	0.269553291204838	0.962173560605147	-0.0395355848958038	0.234180375740136	-0.105317919743128	-0.966471772686191	-0.934077392306895	0.251257189058132	-0.253710957839345
61	0.0001	-9.11125305175781	2.0645068359375	-2.37765563964844	0.270730819010007	0.961725546239249	-0.0422941763011064	0.236877449130916	-0.109137586767253	-0.965390108322978	-0.933056213596695	0.25134231809514	-0.257358002407464
62	0.0001	-9.46631469726563	1.50766479492188	-2.93030639648437	0.271346640956024	0.961378714803653	-0.0460648148195635	0.239636112878157	-0.113835039031374	-0.964166021644288	-0.932172480738694	0.250584418133298	-0.261269813683606
63	0.0001	-9.3166259765625	1.74357421875	-1.86751647949219	0.273490462006741	0.960808055905281	-0.0452862771582612	0.242215051186451	-0.114356872261795	-0.963459586461853	-0.930878529223918	0.252527989486343	-0.263997686269977
64	0.0001	-8.80768432617188	1.32863708496094	-2.8740234375	0.276235474920781	0.959986191914326	-0.0460486018150628	0.249316326308611	-0.117848643699291	-0.961224774240768	-0.928189275865256	0.25404371378184	-0.271894206736116
65	0.0001	-8.90109008789063	1.57652160644531	-2.81295043945313	0.279754191838549	0.959048812445638	-0.0443053890105219	0.258154738504745	-0.119591672414882	-0.958673021877928	-0.924712778724458	0.256755150358516	-0.281039267057235
66	0.0001	-8.669970703125	2.07468566894531	-3.84340759277344	0.281938771620519	0.958561161912178	-0.0408782085063531	0.262978506929485	-0.118183578415924	-0.957535872271084	-0.922687831257274	0.259216397371739	-0.28540151608456
67	0.0001	-9.42559936523438	2.14294372558594	-4.23858581542969	0.282356715111005	0.95865162641564	-0.0355210445000098	0.265412905720482	-0.11364861757844	-0.957413171624205	-0.921862611731669	0.260904294508845	-0.286527964076996
68	0.0001	-8.75798767089844	2.64050903320313	-3.45661193847656	0.283464627473122	0.958480988109932	-0.0310161313405146	0.269693221763009	-0.110714031599076	-0.956560489118261	-0.920278963742306	0.262786222315567	-0.289879337405239
69	0.0001	-9.13699951171875	1.67292114257813	-3.45002563476563	0.283440855446823	0.958635629120913	-0.0260578595345863	0.27228340705082	-0.106500844473463	-0.95630503312031	-0.919523261102388	0.263960793881194	-0.291207265680715
70	0.0001	-8.92084899902344	2.91414001464844	-4.07811950683594	0.284600569368313	0.958321193957797	-0.0249600706436193	0.275975324211662	-0.106837673408545	-0.955208528001565	-0.918063252908807	0.264964527346495	-0.294879064883468
71	0.0001	-10.4386926269531	-1.00770446777344	0.47181884765625	0.283506672806923	0.958550867991824	-0.0283584193154157	0.272071903144632	-0.108755843893102	-0.956111419207175	-0.919565574602055	0.263348438178812	-0.291627766365916
72	0.0001	-9.28489196777344	1.89505920410156	-4.00327514648438	0.287135947852605	0.957081209772157	-0.0393510527413181	0.267994137362292	-0.119706224377267	-0.955954790868679	-0.919636933681019	0.263943133546609	-0.290864113398972
73	0.0001	-9.06514892578125	3.00634826660156	-3.8080810546875	0.291003637055669	0.955431429766486	-0.0496756100590751	0.26510224395768	-0.130416265890031	-0.955359826369051	-0.919259312418958	0.264844068473639	-0.291238623684008
74	0.0001	-8.30952026367187	2.39382202148438	-4.23439453125	0.293084952341186	0.954702541216669	-0.0514224513768013	0.25998581106269	-0.131339992754904	-0.956638481532714	-0.920059013736206	0.267007236039731	-0.28670289001889
75	0.0001	-8.62985412597656	2.91833129882813	-3.40152648925781	0.296063563080396	0.953585410591508	-0.0549657286239862	0.257303696532206	-0.135039946962258	-0.956848483551755	-0.919859323139687	0.269145086210869	-0.28534145896021
76	0.0001	-8.22210205078125	2.55129455566406	-3.5398388671875	0.298283786339581	0.952695207054204	-0.0582977294829765	0.25619356350158	-0.138750458070563	-0.956615475729706	-0.919451815391805	0.270407383111401	-0.285461392015731
77	0.0001	-8.51609069824219	2.75067993164062	-3.40272399902344	0.299964202497276	0.951991704412371	-0.0611005069553558	0.259340775505094	-0.143018419303005	-0.955137735565131	-0.918021698752589	0.270661276266293	-0.289790672985367
78	0.0001	-8.87474487304688	2.87043090820312	-3.55840026855469	0.301722507508862	0.951229919210211	-0.064227480581917	0.259861038923584	-0.146868165217472	-0.954411851610828	-0.917298080730643	0.271277317232734	-0.291501026143803
79	0.0001	-8.83402954101563	2.94707153320312	-3.61109069824219	0.303336216939342	0.950525990223732	-0.0669886662213995	0.260782931230634	-0.150427950856084	-0.953605628328608	-0.916503901940241	0.271793623012817	-0.293511199476067
80	0.0001	-8.89749755859375	2.87821472167969	-3.56438781738281	0.304156663423427	0.949986067526624	-0.0708180457258547	0.261628358801635	-0.154784055321344	-0.95267649183185	-0.91599089840778	0.271234894000717	-0.295621897549097
81	0.0001	-8.91486145019531	2.70697082519531	-4.08290954589844	0.304557350431845	0.949469853358233	-0.0758407401192107	0.260794382779345	-0.159704149909242	-0.952092891693089	-0.916095579188479	0.270188049450122	-0.296255477123484
82	0.0001	-8.51070190429687	2.91294250488281	-3.86436401367188	0.304135646327212	0.949624463382337	-0.0755968728118926	0.260861865971767	-0.159342795656202	-0.952134948604553	-0.916216456692881	0.269857836681232	-0.296182633634838
83	0.0001	-8.574169921875	2.87522094726563	-3.49014221191406	0.303083738843424	0.949988089725848	-0.0752520871984678	0.260852959681334	-0.158653855477149	-0.952252428491377	-0.916567499246062	0.268982496681978	-0.295892608566942
84	0.0001	-8.82864074707031	2.35310668945313	-3.43146423339844	0.30085862416857	0.950694953489308	-0.0752541937260517	0.260371347682164	-0.157796764265632	-0.952526609861095	-0.917437109326612	0.266981809487574	-0.295008243669854
85	0.0001	-8.78912292480469	2.63512023925781	-3.81646362304688	0.299768871590973	0.950721702991957	-0.0791635464412022	0.258866761374056	-0.160926787669629	-0.952413024305129	-0.91821926764841	0.265010966698375	-0.294351089770039
86	0.0001	-8.34664306640625	2.92851013183594	-3.19196228027344	0.299227139346575	0.950366411920046	-0.0852455404856056	0.258308019932772	-0.166683326374936	-0.951574293235687	-0.918553256984523	0.262717246869718	-0.295363441001624
87	0.0001	-9.19447998046875	2.54650451660156	-3.44343933105469	0.299246977021155	0.949732487517317	-0.0919752624234909	0.259079146017053	-0.173644755560778	-0.950118674148294	-0.91832959379668	0.260491268606852	-0.298018549987778
88	0.0001	-8.75619140625	2.58003479003906	-3.75119934082031	0.298389297451553	0.949773909717285	-0.0943045470097364	0.259622909051163	-0.175849177650277	-0.949564643305306	-0.918455100841724	0.258856305969284	-0.299054577958197
89	0.0001	-9.11664184570312	2.40100708007812	-3.70509521484375	0.296056002471008	0.950439349513856	-0.0949520210241168	0.258815076540125	-0.175512192828429	-0.949847475294895	-0.919437653980092	0.25663303190399	-0.297949471184881
90	0.0001	-8.85558471679687	2.08067321777344	-2.92132507324219	0.29272188311491	0.95159172571971	-0.0937394617407508	0.258635131533773	-0.173174229130932	-0.950325499553398	-0.920555141141567	0.253936751784164	-0.296806937606146
91	0.0001	-9.46811096191406	1.93816955566406	-4.53077819824219	0.290157346491773	0.952182615927226	-0.0956921114974347	0.257401571106383	-0.173962306675998	-0.95051646332293	-0.921712072975514	0.251168034952599	-0.295569742614549
92	0.0001	-8.85259094238281	1.59089172363281	-2.89857238769531	0.286592743114862	0.953101374756443	-0.0972747091040438	0.255794610654864	-0.173971130497264	-0.950948559551688	-0.923273370542997	0.247652609901211	-0.293657058582444
93	0.0001	-9.63875610351563	1.41186401367187	-3.48295715332031	0.280957999861705	0.954427727337349	-0.10064946896717	0.253024117570099	-0.174827684570147	-0.951532488481457	-0.925765304081754	0.241873921697863	-0.29061247007125
94	0.0001	-9.30644714355469	1.47712829589844	-2.82073425292969	0.27468519077944	0.955781992312997	-0.105018232401146	0.24884410541364	-0.176161450230737	-0.952388447354066	-0.928775891788406	0.235473834263601	-0.286229656412207
95	0.0001	-9.17112854003906	1.14721435546875	-2.92072631835938	0.267811834474013	0.95760119384643	-0.106192160066349	0.247953627687153	-0.175008477889517	-0.952833160203598	-0.931018700044443	0.22884926526141	-0.284310031403867
96	0.0001	-9.38967407226563	0.583187255859375	-2.81354919433594	0.258934396747536	0.959715473481771	-0.10908339993166	0.246477452960189	-0.174848431714584	-0.953245451659334	-0.933917471387728	0.219941437402349	-0.281822498658537
97	0.0001	-9.55672668457031	0.0796343994140625	-2.43333984375	0.249135996026416	0.961722828291425	-0.114107217243555	0.244067883018808	-0.17636794368872	-0.953585453390377	-0.937209754517442	0.209722554776911	-0.278665258069968
98	0.0001	-9.65432373046875	-0.0484991455078125	-2.35490295410156	0.23823952014918	0.963783991595574	-0.119843016413938	0.242577694183746	-0.178535220015528	-0.953562393081074	-0.940424368741892	0.198105004374221	-0.276326643518689
99	0.0001	-10.2937939453125	-0.383801879882813	-2.58662109375	0.224754552246495	0.966335764077695	-0.125222131865163	0.238470911704205	-0.179150715464981	-0.954482396600037	-0.9447841105329	0.184662427723573	-0.270707909510958
100	0.0001	-9.50463500976563	-0.956211547851563	-1.89925048828125	0.209711776394708	0.96921618050654	-0.128999869324319	0.235533215334698	-0.178124361706541	-0.955403483477392	-0.948970534482223	0.169975607694023	-0.265637379661773
101	0.0001	-9.92316467285156	-1.62981079101562	-1.72321655273438	0.193619684883664	0.972263285213126	-0.131207933647817	0.225894549420089	-0.174326073735932	-0.958426873870985	-0.954716224942179	0.155931152251221	-0.253381936194672
102	0.0001	-9.07532775878906	-1.97888488769531	-1.16218322753906	0.17800425261457	0.975185097259612	-0.131637806628225	0.224175684778574	-0.170443946145692	-0.959528073365413	-0.958154344771856	0.141290082118477	-0.248952534210376
103	0.0001	-9.28549072265625	-2.47106140136719	-0.892144775390625	0.161553782103758	0.978197455880846	-0.13049947431393	0.220753118481736	-0.164706526832234	-0.961321913148479	-0.961856764892029	0.126497024973329	-0.242549101223519
104	0.0001	-9.06035888671875	-3.46259948730469	-0.583187255859375	0.145288905782143	0.980827802983231	-0.129876690563459	0.219502426026142	-0.159952592692884	-0.962410438980928	-0.964733029819787	0.111319310929925	-0.238533419438076
105	0.0001	-9.01126098632812	-4.25475219726563	-0.611328735351563	0.13025440397608	0.982763524229568	-0.131185539175304	0.217698800438047	-0.157432351576521	-0.963235322735271	-0.967285388358923	0.0969067083383076	-0.234452697460197
106	0.0001	-8.59871887207031	-4.18110534667969	-0.55324951171875	0.116363567642066	0.984718005367039	-0.129576116748304	0.215345686226803	-0.152373091499338	-0.964576941674661	-0.969580195522329	0.0843379564187686	-0.229785451145167
107	0.0001	-8.53824462890625	-5.90791442871094	-0.599952392578125	0.106000867900746	0.985172316049559	-0.134904869051629	0.211658112493188	-0.15491458110743	-0.96498824654818	-0.971578437090959	0.0737358816985173	-0.22494079294346
108	0.0001	-7.67184631347656	-5.37622009277344	0.323926391601563	0.0962336805692275	0.984677427614662	-0.145428478195545	0.20787710160645	-0.162767099525995	-0.964517486590884	-0.97340956917004	0.0625878171696942	-0.220355566732795
109	0.0001	-7.72573425292969	-5.23910522460938	0.559237060546875	0.0861815248062205	0.983782268290949	-0.157306050037466	0.203157135944735	-0.171929242716449	-0.963933355379759	-0.975346052894462	0.0511153997858133	-0.214679512315286
110	0.0001	-7.520361328125	-5.01816467285156	0.525706787109375	0.0733959360582336	0.98364665281423	-0.164475830982844	0.194016407468767	-0.17585273672283	-0.965107998422977	-0.978248777256097	0.0389239950988109	-0.203750466017868
111	0.0001	-6.64917297363281	-5.13851440429687	1.54059631347656	0.0609596385734541	0.98362806667646	-0.169586995112608	0.191163751740869	-0.17826309530067	-0.965235043330991	-0.979663382231545	0.0264214931477027	-0.198900885404004
112	0.0001	-6.64558044433594	-5.66901123046875	1.93697204589844	0.0476184833923806	0.984093986096034	-0.171147616311265	0.187600503448489	-0.177104043131094	-0.966147094914896	-0.981090480610878	0.0138990804097995	-0.193049953168807
113	0.0001	-6.56774230957031	-6.7874853515625	2.17108520507813	0.0359577840620851	0.984834408277678	-0.169729861950397	0.184405546800019	-0.173461890668563	-0.967422124408509	-0.982192258203418	0.00348722784511002	-0.18784623277358
114	0.0001	-5.76720703125	-6.74736877441406	2.21539306640625	0.0264973331635497	0.985736440078857	-0.166197358691053	0.181964696965376	-0.168234283832259	-0.968806520829493	-0.982947984581849	-0.00457126285722503	-0.183826992474912
115	0.0001	-5.89953186035156	-7.59640319824219	2.289638671875	0.0165153139755044	0.985790026448095	-0.1671683826558	0.179141591655849	-0.167403174160279	-0.969476388273625	-0.983684672312881	-0.0139356031993172	-0.179360710358126
116	0.0001	-5.62470336914062	-6.94376037597656	2.25550964355469	0.00563677248531913	0.985182840398561	-0.171414695344865	0.175742588222905	-0.169725392787601	-0.969694711611757	-0.984420016802108	-0.0246589137497749	-0.174095285668561
117	0.0001	-5.3265234375	-7.35869750976563	2.52973937988281	-0.00465399304461456	0.984058439690778	-0.177784497699018	0.172858989485766	-0.174318394440897	-0.969398198426997	-0.984935586778496	-0.0352432210914281	-0.169292070884611
118	0.0001	-4.43018737792969	-6.8832861328125	2.79678405761719	-0.0147287279089409	0.982948950779666	-0.183287819386172	0.170931610963427	-0.178134140744556	-0.969046238460604	-0.985172801567132	-0.0456025006151209	-0.165393358361259
119	0.0001	-4.282294921875	-7.09165283203125	3.02610717773438	-0.0237663433634195	0.982220097226359	-0.186222559126906	0.168312279608226	-0.179684943307871	-0.969218395245122	-0.985447176390604	-0.0543783206166655	-0.16104924958129
120	0.0001	-4.34276916503906	-7.39522155761719	3.12550048828125	-0.0336470154087737	0.981831870936547	-0.186745965330773	0.165359828227986	-0.178807525966049	-0.969888651272048	-0.985659173123496	-0.0635141391435117	-0.156339209945445
121	0.0001	-3.86436401367188	-7.53293518066406	3.43146423339844	-0.0427592522551521	0.981309521807013	-0.187625341458639	0.16204970481302	-0.178498262180487	-0.970504128568529	-0.985855739708703	-0.0719026620469428	-0.15138846611935
122	0.0001	-3.48116088867188	-7.46886840820313	3.400927734375	-0.0525781644751866	0.981041737181256	-0.186527870648879	0.160467406767344	-0.176058865740639	-0.971212380048506	-0.985639765830186	-0.0809962079513882	-0.14816837149578
123	0.0001	-3.39254516601563	-7.51676879882813	3.3482373046875	-0.0621019242722357	0.980559866224358	-0.186133553535503	0.158355054478654	-0.174450910747646	-0.971849039954446	-0.985427332542967	-0.089828884493716	-0.144442873787067
124	0.0001	-2.85905456542969	-7.80536865234375	3.69731140136719	-0.0716541381711795	0.979940610814436	-0.185962586988825	0.157676600801415	-0.172968793901812	-0.972224195284125	-0.984887696157616	-0.0989858354148878	-0.14211977464294
125	0.0001	-2.97521301269531	-8.02511169433594	3.592529296875	-0.0801160308642992	0.978968841073355	-0.187620440800151	0.157106628773968	-0.173471190629034	-0.972226955611201	-0.98432663724692	-0.107367379726048	-0.139904671033291
126	0.0001	-2.85486328125	-7.98319885253906	3.52187622070313	-0.0871329908618269	0.978198178402065	-0.188510386117992	0.155646825440115	-0.173538355597495	-0.972449744134334	-0.983962350719725	-0.114073497830999	-0.137132525167132
127	0.0001	-2.32257019042969	-7.70837036132813	3.80628479003906	-0.093360226708441	0.97725725193655	-0.190399925436884	0.154098075004469	-0.174747699303408	-0.972479832627949	-0.983634917715341	-0.120131199634351	-0.134278976483834
128	0.0001	-2.14713500976563	-7.60059448242187	3.71347778320313	-0.0987226473268862	0.976490238332589	-0.191626337819035	0.154303604856547	-0.175216377386253	-0.972362904796307	-0.98307895737476	-0.125562874834888	-0.13337813925135
129	0.0001	-2.327958984375	-7.54371276855469	3.74461303710938	-0.103385877240676	0.976054445934057	-0.191387248685842	0.154252890072582	-0.174356473489379	-0.97252550920611	-0.982607452796605	-0.13006743914104	-0.132533222189231
130	0.0001	-2.36807556152344	-7.70537658691406	3.77634704589844	-0.107279479905811	0.975609149458331	-0.191514753176693	0.154108040592739	-0.17398117048432	-0.972615681624337	-0.982212718822051	-0.133855667829557	-0.13168460492441
131	0.0001	-2.07528442382812	-7.22936645507813	3.89190673828125	-0.108793838596547	0.975388274633897	-0.191785334137255	0.156452845650168	-0.173724965797156	-0.972287068383994	-0.981675306693305	-0.13578420366702	-0.133702065291154
132	0.0001	-2.59679992675781	-7.56586669921875	3.63923217773438	-0.109483023578172	0.975528412677552	-0.190677171174208	0.158878784215725	-0.172189240512676	-0.972166856757523	-0.981208947917983	-0.136730324034154	-0.136138969495148
133	0.0001	-2.59081237792969	-7.46168334960938	3.63444213867188	-0.108740416880163	0.975475260855277	-0.191372770257576	0.162798793064574	-0.172439837315263	-0.971473651461224	-0.980648802942953	-0.136793705871345	-0.14005501533518
134	0.0001	-3.00934204101563	-7.29223571777344	3.1949560546875	-0.106989109773988	0.975662479219698	-0.191405478063304	0.165342421095209	-0.172370721118561	-0.971056238478206	-0.980415837375215	-0.135539887649134	-0.142876606482364
135	0.0001	-3.23447387695313	-7.06231384277344	3.33686096191406	-0.10407219532516	0.976579451570544	-0.188312381245573	0.167465735323256	-0.169430464554139	-0.971209835809755	-0.980369423050741	-0.132611811129873	-0.145910595557732
136	0.0001	-3.31231201171875	-7.40779541015625	2.47465393066406	-0.0995247283830726	0.978267762737359	-0.181898358511333	0.171415621475102	-0.163216648796519	-0.971584793144653	-0.980158922397067	-0.127876932808366	-0.151446283879613
137	0.0001	-3.54522766113281	-7.11440551757813	2.81295043945313	-0.0932947373527938	0.98023202331845	-0.174474274445521	0.175653505155006	-0.156285215310377	-0.97196747764632	-0.980021396760822	-0.121326468408203	-0.157600602646563
138	0.0001	-5.09720031738281	-7.73172180175781	2.69379821777344	-0.0855124281839366	0.981521469236139	-0.171181862516501	0.179479025639367	-0.153825512388885	-0.971660944514001	-0.980038215572041	-0.113812640628483	-0.16300852386161
139	0.0001	-4.56251220703125	-6.15759521484375	1.67890869140625	-0.0768088958014841	0.982634385916681	-0.168908428267817	0.185111548751205	-0.152409334659286	-0.970827023329926	-0.979711237071765	-0.105835052430001	-0.170190580328207
140	0.0001	-5.63667846679688	-6.69228332519531	1.30408813476563	-0.0659329706348467	0.983748598053229	-0.167007602256814	0.195228164235846	-0.151418928548279	-0.968998592344897	-0.97853911892799	-0.096493543336312	-0.182071933097985
141	0.0001	-6.11149108886719	-5.72050415039063	0.36164794921875	-0.0525502269498123	0.985652278788893	-0.160399685055131	0.214141851034198	-0.145762709755524	-0.965865673932133	-0.975387995252746	-0.0851047458311754	-0.203409539977457
142	0.0001	-7.92332336425781	-7.22697143554688	0.116158447265625	-0.0392874452428534	0.98801947862333	-0.149244787202677	0.220446513948138	-0.137109702535124	-0.965714380113936	-0.974607526717501	-0.0708409438927241	-0.212418759844757
143	0.0001	-8.56099731445313	-6.6916845703125	0.59156982421875	-0.0257204687897922	0.990714757897053	-0.133501782648089	0.220010005377393	-0.124661646490456	-0.967499390918737	-0.975158476873925	-0.0542562658065657	-0.214760803224551
144	0.0001	-8.46759155273438	-7.18326232910156	-1.27474914550781	-0.0117538523311508	0.99288986329957	-0.11845491257157	0.216908821696374	-0.113110579761246	-0.969616707682147	-0.976121104180044	-0.0370906471099591	-0.214037085270979
145	0.0001	-8.58255249023438	-5.69715270996094	-1.69148254394531	-0.000291513845125935	0.993561414477684	-0.113294442409071	0.213819197207175	-0.110612384955559	-0.97059067129255	-0.976873208725348	-0.0245074673425738	-0.212410258977986
146	0.0001	-9.22501647949219	-5.11935424804688	-0.220940551757813	0.0119832093926994	0.99348580697291	-0.113324110568036	0.210223057697947	-0.113302391350889	-0.971065823786573	-0.977580006293488	-0.0121868559339842	-0.210211350401608
147	0.0001	-9.28608947753906	-3.26081909179688	-1.39929016113281	0.0251753956175808	0.993537141706405	-0.110680384465205	0.208064993562813	-0.113498479886265	-0.971507618867302	-0.977790958185442	0.00142937516919556	-0.209577668126689
148	0.0001	-8.89091125488281	-2.39382202148438	-1.00890197753906	0.0371923933120618	0.993738455919122	-0.105359418692398	0.208329435756758	-0.110826222505011	-0.97175943247418	-0.977351304330736	0.0141925907694384	-0.211146864268119
149	0.0001	-9.41063049316406	-2.14713500976563	-2.0549267578125	0.0459622795049542	0.994053823566596	-0.0987140553079407	0.207851236346025	-0.106172332737048	-0.972381252035744	-0.977080003076584	0.024175020450959	-0.211495238655764
150	0.0001	-9.71240295410156	-1.70345764160156	-1.86272644042969	0.0555176465869134	0.994313713084493	-0.0908737084616879	0.206489589682407	-0.100480355844857	-0.973275781801891	-0.976872479021823	0.0352695061125066	-0.21089386351513
151	0.0001	-9.46930847167969	-1.17595458984375	-2.09085205078125	0.0651872804352749	0.99422093094823	-0.0852957146279207	0.20748368819144	-0.0971138931061607	-0.973406087355243	-0.976064105273793	0.0457562261359042	-0.212615216214338
152	0.0001	-9.71060668945313	-1.17894836425781	-1.97708862304688	0.0733926002536006	0.993757400966615	-0.0840223437669598	0.209730220555005	-0.0977449175981259	-0.972861329105893	-0.975000902981102	0.0537787979394623	-0.215594712546997
153	0.0001	-10.1866168212891	-0.307161254882813	-2.40879089355469	0.0772202970501615	0.993286824516172	-0.0861296114356994	0.211077136963244	-0.100716523902551	-0.972266745324752	-0.974414423115178	0.0568987350963668	-0.2174374989958
154	0.0001	-9.72557556152344	-0.150287475585937	-2.12617858886719	0.0792639689860836	0.993149645252518	-0.0858545593161575	0.21293044224249	-0.10100589044025	-0.971832514820733	-0.973846933551157	0.0587502530306948	-0.219477920943858
155	0.0001	-9.6231884765625	-0.37122802734375	-2.34652038574219	0.0793146488394822	0.993439112289343	-0.082388813884115	0.211596129668066	-0.0975439056134296	-0.972477385026086	-0.974133596786891	0.0596985481518607	-0.217944531841465
156	0.0001	-9.38967407226563	-0.226928100585938	-1.77890075683594	0.0775724759896926	0.993833178663775	-0.0792346133699576	0.202072589458325	-0.093497469866908	-0.97489737496728	-0.976293592910676	0.0596140597136669	-0.208079274138535
157	0.0001	-8.78553039550781	-0.739462280273438	-1.79686340332031	0.0765780230442883	0.993951938332497	-0.0787105499390031	0.20315845043769	-0.0928408631627552	-0.974734434675903	-0.976146736101897	0.0586525226419662	-0.209039305359897
158	0.0001	-9.64773742675781	-0.047900390625	-1.79446838378906	0.0764678729338281	0.993950437037216	-0.0788364961328452	0.206323465211906	-0.0931305542014731	-0.974041748374821	-0.975491308065801	0.0582170815796758	-0.212196793803342
159	0.0001	-10.2213446044922	-0.44068359375	-1.07177124023438	0.0769621825066811	0.993923410202119	-0.0786961061044243	0.211689258619015	-0.0934201888376694	-0.972861925507862	-0.974302047749639	0.0582144567072885	-0.217592731452904
160	0.0001	-9.8722705078125	0.444276123046875	-2.52135681152344	0.0789450101007461	0.993646682207203	-0.0802119462350243	0.215259127886089	-0.0955563673559318	-0.971870613054772	-0.973360772397323	0.0594579817716299	-0.221435216624933
161	0.0001	-9.64773742675781	0.789158935546875	-2.375859375	0.0808221637275004	0.993359000014049	-0.0818881856038675	0.216015828009969	-0.0976612674799593	-0.971493406505353	-0.973039022804108	0.0608290549433092	-0.22247446184929
162	0.0001	-9.13400573730469	0.689765625	-2.14354248046875	0.0836146433977238	0.99289368256911	-0.0846801424409723	0.218426163925867	-0.101172689640998	-0.970594713453271	-0.972264677092664	0.0626595721750335	-0.225333476635719
163	0.0001	-9.72018676757813	1.31187194824219	-3.22669006347656	0.0854825268612335	0.99247438727996	-0.0876774098310809	0.2192205715814	-0.104578409349063	-0.970054481610979	-0.971923391321015	0.063702016383224	-0.226510429145699
164	0.0001	-9.43218566894531	1.26995910644531	-2.58063354492187	0.0866174219702254	0.991976368513481	-0.0920885797590519	0.220871914495352	-0.109256913444938	-0.969163827354098	-0.971448927941346	0.0636066912776686	-0.228563271822744
165	0.0001	-9.54535034179688	1.3076806640625	-2.62853393554688	0.0883277140074519	0.991730717725393	-0.0931042343725302	0.22372450075135	-0.11083322528232	-0.968330183324406	-0.970641830286423	0.0647006931446303	-0.231664105128151
166	0.0001	-9.32261352539063	1.33522338867188	-2.54231323242188	0.0899280615543587	0.991692297709463	-0.091974618285712	0.225890864962267	-0.110251504029469	-0.967893549408115	-0.969992917949237	0.0662645646101057	-0.233928934946831
167	0.0001	-9.46212341308594	1.20529357910156	-2.73391479492187	0.0916296715511558	0.991807732864408	-0.0890023837983641	0.227813899325425	-0.107886783720581	-0.967709289597126	-0.969383737518622	0.0683949042604236	-0.235833217561978
168	0.0001	-9.66031127929688	1.43581420898438	-3.29494812011719	0.0931391356239253	0.992140818182542	-0.0835565575601631	0.230610084828629	-0.103135786146646	-0.967564984066314	-0.968578386188006	0.0708491814489758	-0.238403656216614
169	0.0001	-9.57468933105469	1.149609375	-3.2620166015625	0.0953976477315874	0.992259668183431	-0.0794986773713052	0.231637822253122	-0.0997986188113321	-0.967669445102604	-0.968113220707739	0.0738984883462261	-0.239365422129078
170	0.0001	-9.1154443359375	1.81183227539063	-2.93569519042969	0.0974881815444281	0.992226390170068	-0.0773488533155867	0.230575265423684	-0.0981221313047591	-0.968094568894491	-0.968158613778733	0.0765430467011018	-0.238348611424012
171	0.0001	-9.47409851074219	1.66453857421875	-3.48175964355469	0.0999650984042517	0.99209558537753	-0.0758506992416373	0.226538445881738	-0.0969241148485723	-0.969167709170249	-0.968858767642898	0.0796998458921834	-0.234436820756141
172	0.0001	-9.17951110839844	2.23814575195312	-2.58302856445313	0.103854566364498	0.991748780228329	-0.0751570752548553	0.223140064331918	-0.0968728587418528	-0.969960906907659	-0.969238227029449	0.083964314770043	-0.231359575358375
173	0.0001	-9.29507080078125	2.4956103515625	-2.62075012207031	0.10840265032013	0.991205780684462	-0.075894438144559	0.218000385330424	-0.0981885699328687	-0.970996826323508	-0.969909633625401	0.0887136126659533	-0.226727143342823
174	0.0001	-9.21663391113281	2.3806494140625	-2.25491088867187	0.11352687490292	0.990345996853333	-0.0795390167864524	0.211473646488909	-0.102308693556676	-0.972014314742026	-0.970768018383105	0.0935293415955916	-0.221046865495158
175	0.0001	-9.20286254882813	3.46918579101562	-2.64170654296875	0.117656209704123	0.98947004054215	-0.0842974210019212	0.206103736851784	-0.107369484849894	-0.972621737048273	-0.971431040256482	0.0970609735814754	-0.216566159483946
176	0.0001	-8.85139343261719	3.33266967773438	-2.43573486328125	0.120794183070788	0.988657396865389	-0.0892486244130031	0.200692478374993	-0.11237277429752	-0.973188002762252	-0.972178632999082	0.0996439221429534	-0.211990080711351
177	0.0001	-9.11664184570312	4.01764526367188	-2.13575866699219	0.123207050523621	0.988273401123879	-0.0901981559252228	0.195345847022377	-0.113264714346949	-0.974172009726729	-0.972964553697811	0.102405024852029	-0.207010116015318
178	0.0001	-8.9046826171875	3.68054626464844	-1.15020812988281	0.126534540670211	0.987745533532808	-0.0913661370715012	0.189019802760715	-0.114427666021624	-0.975283457981906	-0.973786693368563	0.106137035170732	-0.201182518086158
179	0.0001	-9.15735717773438	3.92962829589844	-1.63519958496094	0.13025668255626	0.987393418798769	-0.0899301571349521	0.183719968738523	-0.113169045940601	-0.976442389558959	-0.974310099370911	0.110666180713773	-0.196144912526612
180	0.0001	-8.84420837402344	4.48227905273438	-1.17954711914063	0.133619975065419	0.987115457606527	-0.0880271300098688	0.17834823754016	-0.111324942970648	-0.977649560547593	-0.974852608566975	0.114934026410109	-0.190925538216669
181	0.0001	-9.30524963378906	3.65899108886719	-0.952020263671875	0.136027118504966	0.987428778845747	-0.0805048429501838	0.172221896757684	-0.103591345475676	-0.979596065437038	-0.97562095165511	0.119386933329142	-0.184148089433047
182	0.0001	-9.034013671875	3.05484741210938	-0.603544921875	0.140194067238047	0.987320192152028	-0.0744611420818698	0.165260809774715	-0.0974823283493442	-0.981420429995319	-0.976234853026596	0.125283813114356	-0.176831778557101
183	0.0001	-9.17951110839844	3.54462890625	-0.141904907226563	0.146014656037799	0.986682024128408	-0.0716819606597817	0.157600785337212	-0.0947333504878866	-0.982948414092232	-0.976648203133174	0.132227741292084	-0.169334319467544
184	0.0001	-9.3118359375	4.39845336914063	0.183218994140625	0.152236935739234	0.985791288369041	-0.0709890919256911	0.149925273716039	-0.0940287874080118	-0.984215931307632	-0.976906509190055	0.139190958450198	-0.162109683201887
185	0.0001	-8.86037475585938	4.97744934082031	0.032332763671875	0.156615517734355	0.985147200369704	-0.0704029346585424	0.144087810990849	-0.0933101624662219	-0.985155782759454	-0.977092770584588	0.144146478223585	-0.156561523009558
186	0.0001	-8.497529296875	4.94092529296875	0.414937133789062	0.160858695736426	0.984583314562714	-0.0687035420533518	0.137831090176768	-0.0913373070322046	-0.986235310118629	-0.977306027090112	0.149175041574673	-0.150398591697313
187	0.0001	-8.48435668945313	5.07145385742187	0.245489501953125	0.163991961719913	0.984206910891256	-0.0666587807055234	0.130875954826284	-0.0886836918403288	-0.987424269121373	-0.977741336417543	0.153205611370674	-0.14335243180698
188	0.0001	-7.82273254394531	4.91278381347656	1.26756408691406	0.168786320698347	0.983636323689689	-0.0630139719692985	0.124056722571078	-0.0846232261312072	-0.98866012318899	-0.977814454551597	0.159054997775547	-0.136309941503118
189	0.0001	-7.63472351074219	5.29898071289062	0.930465087890625	0.173423144112008	0.983080078059795	-0.0589743436441102	0.117418998968057	-0.0800939520146637	-0.989847330416167	-0.977822679102733	0.16473772783616	-0.12932242365396
190	0.0001	-7.14374450683594	5.26185791015625	1.36456237792969	0.177906078932235	0.982512732785265	-0.0549377556311467	0.111024830298027	-0.0755127796199012	-0.990944653939548	-0.977764242614881	0.170195622825342	-0.122517491954586
191	0.0001	-6.99884582519531	5.33310974121094	1.79806091308594	0.181680700540985	0.981942508792867	-0.0527354954135062	0.105022611096672	-0.0726968519697648	-0.991809164543323	-0.977733283779055	0.174654164391397	-0.116333781213235
192	0.0001	-6.90603881835938	5.66422119140625	1.74596923828125	0.184322934303871	0.981452544913465	-0.0526873606521961	0.099764149671515	-0.0720114855391304	-0.992401864362803	-0.977789430465441	0.177666113914081	-0.111187146904389
193	0.0001	-6.27315490722656	5.853427734375	2.10641967773438	0.186521030401573	0.981013088121551	-0.0531340394865104	0.095442391526004	-0.071920816112445	-0.992833392926284	-0.977803996268031	0.18011306766567	-0.107044979977247
194	0.0001	-6.49529296875	6.48930541992187	1.97768737792969	0.187461073190398	0.980907292326817	-0.0517612779824493	0.090728705611275	-0.0697611983179798	-0.993429251223932	-0.97807292571485	0.181533079821039	-0.102073958061209
195	0.0001	-6.63719787597656	6.04562805175781	2.01720520019531	0.186526648353239	0.981197685276405	-0.0495874163708142	0.086201580545181	-0.0666238243147773	-0.994047561007614	-0.978660869231839	0.181141846192146	-0.0970079099480097
196	0.0001	-6.34021545410156	5.45824951171875	2.12677734375	0.18647423054215	0.981271803583427	-0.0483012301690359	0.0840881769949502	-0.0649240830180176	-0.994341008876701	-0.978854708234771	0.18135741213526	-0.0946200255243165
197	0.0001	-6.43481872558594	5.4462744140625	2.10522216796875	0.186723880831251	0.981352272423015	-0.0456279490827903	0.0828349886075226	-0.062006587543761	-0.994632368145924	-0.978913968124732	0.181942025138127	-0.0928684149694006
198	0.0001	-6.20250183105469	5.32472717285156	2.423759765625	0.186272748834438	0.981389830900733	-0.0466525759877685	0.083624668459623	-0.0631479192508481	-0.994494472141151	-0.978932774947637	0.181345912826621	-0.0938311357407496
199	0.0001	-6.73539367675781	5.64146850585938	1.99684753417969	0.184556169336491	0.98165940858556	-0.0477893910328311	0.0853560242278347	-0.0644502990895801	-0.994263802054204	-0.979108456447935	0.179418406198228	-0.0956852445752749
200	0.0001	-6.2414208984375	5.78696594238281	2.07229064941406	0.181505004824855	0.982163021872805	-0.049109384940241	0.0900524092567955	-0.0663293412301539	-0.993725808298758	-0.979258135943009	0.175943789198861	-0.100485253802589
201	0.0001	-7.15212707519531	5.83307006835938	1.47173950195312	0.176891585297293	0.983027743840143	-0.0486397151674374	0.0957073828559608	-0.066364902181229	-0.993194742548177	-0.979565956900235	0.171032612676749	-0.105822405392677
202	0.0001	-7.05991882324219	5.24209899902344	1.37593872070313	0.170603877438987	0.984177174069326	-0.0478498384918793	0.101617342833426	-0.0658763273824394	-0.992640027968889	-0.980085829220205	0.164485864230083	-0.111248226189119
203	0.0001	-6.76173889160156	5.98874633789063	0.449664916992188	0.163341592731659	0.98557595457049	-0.0442669386376764	0.110201016953328	-0.0628158329339749	-0.991922329114162	-0.980395460998437	0.157143911448321	-0.118871910678616
204	0.0001	-7.38025268554688	4.29486877441406	0.91250244140625	0.154123627793115	0.987106020537281	-0.043215871794315	0.1185107016656	-0.0618912048100743	-0.991022044334981	-0.980918508820491	0.147618369406422	-0.126521524126027
205	0.0001	-7.83889892578125	4.62178894042969	-1.30528564453125	0.146363524471796	0.988269369105357	-0.0436047335996146	0.128902657641777	-0.0627571010735921	-0.989669465588247	-0.980796525053531	0.139230744998862	-0.136575898642407
206	0.0001	-9.9105908203125	3.95537475585938	0.513731689453125	0.137477313275135	0.989282684604087	-0.0491910385861184	0.137360780213477	-0.0682242184312934	-0.98816874676271	-0.980934250800631	0.129093864927694	-0.145267923659131
207	0.0001	-8.80169677734375	4.6223876953125	-2.94467651367188	0.125835536462005	0.990886469035399	-0.0480564589402733	0.147235234016623	-0.0665589854299011	-0.986859507388267	-0.981064321860391	0.117106391546751	-0.154268886790271
208	0.0001	-8.59632385253906	2.61775634765625	-2.08905578613281	0.117737740119206	0.991992710415914	-0.0456977793039361	0.155983352247781	-0.0639207700429811	-0.985689265934583	-0.980717603784681	0.10892473382479	-0.162260235387576
209	0.0001	-9.94112731933594	2.43453735351562	-0.956211547851563	0.10943407774235	0.992903231200298	-0.0465548719328915	0.162731922324027	-0.0641005963906824	-0.984585920577319	-0.98058273699133	0.100171288373294	-0.168591841143711
210	0.0001	-9.91837463378906	2.72014343261719	-2.14473999023437	0.102568908674655	0.993546645807957	-0.0484219121581226	0.168608482308445	-0.0653393276266602	-0.983515100015724	-0.980331983904908	0.0927137253542027	-0.174222175580528
211	0.0001	-8.65500183105469	1.5855029296875	-1.80704223632813	0.0949564413183387	0.993997619223116	-0.0543323773723909	0.174904742876256	-0.0703888161867945	-0.982066059628991	-0.9799957169149	0.0837505076677182	-0.180538769503538
212	0.0001	-9.10526550292969	1.28911926269531	-2.10701843261719	0.0870247895115883	0.994468658312558	-0.0588113394209384	0.175351454011872	-0.0734048977419275	-0.981765546636986	-0.980652106297838	0.0751252861659659	-0.180769570979454
213	0.0001	-8.80469055175781	1.10290649414063	-2.16390014648438	0.079508775083638	0.994054050632346	-0.0743969025304418	0.177204854766477	-0.0875391260573739	-0.980273095038471	-0.98095708067779	0.0647568207259726	-0.183111332357047
214	0.0001	-9.04419250488281	0.565823364257813	-2.28245361328125	0.0713142855759203	0.994052945306666	-0.0822983268355995	0.178622451721732	-0.0939019421251717	-0.979426589901478	-0.981329859126743	0.0551467786209124	-0.184256724148734
215	0.0001	-8.88612121582031	-0.056282958984375	-2.54590576171875	0.0638725575190935	0.993423751108267	-0.0950239292491608	0.185894699489402	-0.105395618111593	-0.976900672732198	-0.980491436524417	0.0447326996374535	-0.191404097357999
216	0.0001	-10.3261267089844	1.58430541992188	-4.15356262207031	0.0581863688465085	0.99316983301028	-0.101133719791133	0.187624171496935	-0.110379534765935	-0.976019225515023	-0.980515944159271	0.0378158842708861	-0.192765251397299
217	0.0001	-8.56399108886719	-0.546663208007813	-2.77822265625	0.0483220805520784	0.993345137159326	-0.104548625113099	0.189978351059158	-0.111900560456923	-0.975390429878349	-0.980598390096558	0.0272709195178192	-0.194121339086384
218	0.0001	-9.46811096191406	-0.104782104492188	-3.34404602050781	0.0376934858798049	0.993688648104347	-0.105650706343043	0.192525417148011	-0.110966492204235	-0.974997641720159	-0.980567776787619	0.0164106135303453	-0.195493035398564
219	0.0001	-8.4831591796875	-1.80883850097656	-2.76924133300781	0.0237993006973811	0.994330100487416	-0.103639975641647	0.197468330923212	-0.106302455664076	-0.974528627697611	-0.980020332222101	0.00272748684190294	-0.198878629437178
220	0.0001	-9.51840637207031	-2.01061889648438	-3.16801208496094	0.0105528975413141	0.994836834365685	-0.100937155412391	0.20249369080987	-0.1009774654437	-0.974063579369829	-0.979226705893829	-0.0101599439874893	-0.202513787191123
221	0.0001	-9.61181213378906	-2.46746887207031	-3.63923217773438	-0.00327188075186757	0.994699427048645	-0.102773268048861	0.205624075834699	-0.0999084076840432	-0.973517873236627	-0.978625584293335	-0.0243178926541011	-0.20420726202413
222	0.0001	-9.51421508789062	-2.69619323730469	-4.08171203613281	-0.0192114270201318	0.993944800438717	-0.108188052726211	0.208141395871198	-0.101861299361357	-0.972780260396563	-0.977910057416652	-0.0412069092902541	-0.204924157263377
223	0.0001	-8.43466003417969	-3.84879638671875	-2.93928771972656	-0.0362663369589012	0.992659577262085	-0.115376412118957	0.211054463839528	-0.105240258057327	-0.971792416814125	-0.976801293046336	-0.0595940580417811	-0.205688556193873
224	0.0001	-8.79091918945313	-4.52958068847656	-3.08358764648438	-0.0517808885082137	0.991141237403391	-0.122302032296173	0.211652652496229	-0.108792620600584	-0.971270981958263	-0.975972281510397	-0.0761788239692088	-0.204144293336987
225	0.0001	-8.53525085449219	-5.67559753417969	-3.12190795898438	-0.0657171924573215	0.988996495001992	-0.132541252028579	0.213194314569707	-0.115844769097998	-0.970117608183557	-0.974797124970463	-0.092010446941679	-0.203235436877805
226	0.0001	-8.35682189941406	-5.29239440917969	-3.43625427246094	-0.079741275145857	0.986328369838245	-0.144213993392954	0.213202006919636	-0.124450940630291	-0.969049466034462	-0.973748547256196	-0.108019952918273	-0.200363311232326
227	0.0001	-7.61795837402344	-5.67679504394531	-2.84408569335938	-0.0942609132930529	0.983306998134739	-0.155634917818618	0.210986460845216	-0.133048789798537	-0.96839182817347	-0.972933499045629	-0.124118358643647	-0.194923163021836
228	0.0001	-7.23715026855469	-5.91749450683594	-2.19264038085938	-0.109676876284892	0.980856564527172	-0.16090799430837	0.207357879257289	-0.135744141984204	-0.968801443964083	-0.972097573661363	-0.139620656569601	-0.188500343609144
229	0.0001	-6.50427429199219	-6.93657531738281	-2.16270263671875	-0.124983669971894	0.978223549003609	-0.165703863609577	0.204398325255369	-0.138044155969542	-0.969105327420842	-0.970876102740796	-0.154991932620512	-0.182693989910455
230	0.0001	-6.198310546875	-7.52814514160156	-1.63998962402344	-0.140042257233823	0.975088660254381	-0.172018228197397	0.201263126227487	-0.142070384292655	-0.969179632435637	-0.969474765122845	-0.170347029766455	-0.176353534809348
231	0.0001	-6.34979553222656	-7.84548522949219	-1.24481140136719	-0.154427783377091	0.970902871556049	-0.183029160860929	0.19755878382601	-0.151165684618967	-0.968565672903426	-0.968050921519331	-0.185732468345997	-0.168466208919406
232	0.0001	-5.52830383300781	-7.91553955078125	-0.763412475585938	-0.167034970851496	0.966650094903492	-0.194131173528906	0.194037570883074	-0.160817324423488	-0.967722692330332	-0.966668888295489	-0.199312273049958	-0.160704319211474
233	0.0001	-5.35466491699219	-7.71795043945313	-0.0880169677734375	-0.179243675635306	0.962781284277144	-0.202296572858757	0.189502273886689	-0.167987561244654	-0.967403260000114	-0.9653810609995	-0.211736576700217	-0.152338534687563
234	0.0001	-4.44874877929688	-8.01074157714844	0.298179931640625	-0.191420889813279	0.959298151653234	-0.207617675494603	0.184848402314701	-0.172509350957622	-0.967507928646522	-0.963944558107361	-0.223579024210389	-0.144302837215126
235	0.0001	-4.22421569824219	-7.88081176757813	0.699944458007813	-0.203330921807506	0.956282195610767	-0.210192527447483	0.180906277737714	-0.17428818505292	-0.967934164716818	-0.96225228236258	-0.234836093709655	-0.137559275147825
236	0.0001	-4.05476806640625	-8.43466003417969	0.796942749023438	-0.215105871683349	0.953411633821892	-0.211508204239023	0.177290202902357	-0.174855930335559	-0.968500690542514	-0.960363289553587	-0.245828517710123	-0.131418004695918
237	0.0001	-3.40152648925781	-8.72924743652344	0.753233642578125	-0.225639714944948	0.950303807020874	-0.214498003256899	0.173783402176301	-0.177382036061049	-0.968676903002682	-0.958585441245376	-0.255848173033287	-0.125122596632009
238	0.0001	-3.04945861816406	-8.31191528320313	1.16278198242188	-0.234384086659107	0.947340802819368	-0.218196020207821	0.170548743101099	-0.18089703261685	-0.968601770500681	-0.957066991462777	-0.264237898311302	-0.119168397439986
239	0.0001	-2.75726623535156	-8.73343872070313	1.3076806640625	-0.243172176177535	0.944388528599064	-0.221354014609125	0.167718990452803	-0.183829491153953	-0.968543782398902	-0.955373033413951	-0.272648171152079	-0.113689673202328
240	0.0001	-2.75666748046875	-8.58135498046875	1.77051818847656	-0.250039462580303	0.941515536402307	-0.225895466677908	0.164316549753702	-0.188659603090857	-0.968198133461659	-0.954190934053344	-0.279206104651522	-0.107534238713682
241	0.0001	-2.25371337890625	-8.21072570800781	1.89505920410156	-0.255315683536087	0.93966048305072	-0.227710514323315	0.162144029661531	-0.19056806103717	-0.968190646390293	-0.953164841664663	-0.284116157065066	-0.103705322471693
242	0.0001	-2.19982543945313	-8.52387451171875	2.12438232421875	-0.259926967980308	0.937932632982958	-0.229609118508434	0.15990200673282	-0.192691526739755	-0.968143235149386	-0.952296865247062	-0.288361494496679	-0.0998915858932117
243	0.0001	-2.0645068359375	-8.41669738769531	2.23934326171875	-0.263608370700949	0.936189261098086	-0.232508697258858	0.158010101984323	-0.195871478918017	-0.96781567016523	-0.951600459524529	-0.291863034917217	-0.0962939991983731
244	0.0001	-2.05612426757813	-8.17060913085938	2.53632568359375	-0.265645879834009	0.934594207478915	-0.236571202546028	0.157726403207772	-0.19994939125858	-0.96702772590369	-0.951080779039486	-0.294200455951689	-0.0942944508413074
245	0.0001	-2.38005065917969	-8.34125427246094	2.56566467285156	-0.267834165774947	0.933514207279231	-0.23836124779726	0.157743202265934	-0.201573655919687	-0.966687717610015	-0.950464066539354	-0.29651186493461	-0.0932672084415157
246	0.0001	-2.45369750976563	-8.34484680175781	2.48303649902344	-0.270128643616662	0.932812059704227	-0.238520810765391	0.157780281306757	-0.201494660822333	-0.966698135143983	-0.949808348420134	-0.29876673665328	-0.0927498697625322
247	0.0001	-2.33933532714844	-8.33826049804687	2.58123229980469	-0.271797586249736	0.93247561863925	-0.23793968301266	0.158382077616936	-0.200533011465645	-0.966799683906787	-0.949231894532922	-0.300459201815932	-0.0931830373274696
248	0.0001	-2.56626342773438	-8.36640197753906	2.56207214355469	-0.272566115009035	0.932362068345291	-0.237505129333603	0.159245793768656	-0.199729982627417	-0.966824033217339	-0.948866950692178	-0.301345163476274	-0.0940351122378542
249	0.0001	-2.63991027832031	-8.22629333496094	2.33514404296875	-0.272287672799409	0.932210360257858	-0.238418261610549	0.161148496895967	-0.200101056694059	-0.966431957800492	-0.948625629629335	-0.301568253199562	-0.0957392472944741
250	0.0001	-2.55249206542969	-8.11372741699219	2.42435852050781	-0.271472632155422	0.932524944889284	-0.238117276042384	0.163660168274684	-0.199077479658312	-0.966221251273846	-0.948429206272619	-0.301272939794022	-0.0985731019952109
251	0.0001	-3.2332763671875	-8.05864196777344	1.74357421875	-0.269784454783807	0.93341360170503	-0.236548929629891	0.167043851213243	-0.196566047134307	-0.966156374965172	-0.948320989817716	-0.300168015061626	-0.102890538948495
252	0.0001	-3.36081115722656	-7.88081176757813	1.77530822753906	-0.26802267474494	0.93481801968752	-0.232978788498163	0.171144373420523	-0.191780874818642	-0.966400382605622	-0.948089367765014	-0.298890224198283	-0.108587221207817
253	0.0001	-4.07273071289063	-8.61428649902344	2.10701843261719	-0.266482975722587	0.936406091598717	-0.228320947937001	0.173987994255848	-0.186260194335715	-0.966972242549314	-0.94800580246371	-0.297406744413837	-0.11328824684097
254	0.0001	-3.88232666015625	-8.20114562988281	0.81191162109375	-0.263423650800099	0.938704036520795	-0.222357172177365	0.177597073748135	-0.179368280206422	-0.967618881301874	-0.948191573256822	-0.294383681401258	-0.119461242791945
255	0.0001	-4.23319702148437	-7.87063293457031	0.584983520507813	-0.259560572247112	0.940259242420983	-0.220319918247696	0.180199414321093	-0.176976793189845	-0.967578103178536	-0.948765766885108	-0.290846646386302	-0.123497967079441
256	0.0001	-4.6607080078125	-8.24245971679688	0.774190063476562	-0.255508306472315	0.942455840692722	-0.215621180935047	0.183149700461559	-0.171801906490741	-0.967956761506932	-0.949300633384646	-0.286811947572484	-0.128713690744955
257	0.0001	-4.80620544433594	-7.85865783691406	0.155077514648437	-0.250714351964136	0.944694470763136	-0.211411141212476	0.186169917273389	-0.167258099548765	-0.968176373414346	-0.949991092390672	-0.282094106717765	-0.133939685431479
258	0.0001	-5.37322631835938	-7.74968444824219	-0.532293090820313	-0.245426650106732	0.947044027259392	-0.207058856004036	0.188512516802981	-0.16288983456513	-0.968467827449085	-0.950909454378278	-0.276721000698641	-0.138552146668139
259	0.0001	-5.77918212890625	-7.65148864746094	-0.68258056640625	-0.239328050590228	0.949555800735137	-0.202647145281977	0.191149457733587	-0.158548923856022	-0.968671318638192	-0.951936956425601	-0.270566110284253	-0.143561871528663
260	0.0001	-6.15041015625	-7.67603759765625	-1.14302307128906	-0.233661120561577	0.952160130407488	-0.196960825547378	0.193489509783603	-0.152982768578019	-0.969101688225702	-0.952871602232751	-0.26455123999067	-0.148486871735484
261	0.0001	-6.58869873046875	-7.78022094726562	-1.05919738769531	-0.227548304819399	0.954688608492882	-0.191810921971986	0.194835781479331	-0.148358208450033	-0.969550854901812	-0.954075881274208	-0.25799128434779	-0.152248842266277
262	0.0001	-6.41925109863281	-7.00124084472656	-1.89805297851563	-0.221980773293813	0.956760526692169	-0.1879729524469	0.195537864277802	-0.145185131265303	-0.969889798530303	-0.955243152250544	-0.252052717150997	-0.154854602305656
263	0.0001	-6.73120239257813	-6.71383850097656	-1.94415710449219	-0.217976363955366	0.95807819329661	-0.18593676421381	0.19634465961051	-0.143572827902606	-0.969966812695404	-0.955999518514121	-0.247937529667359	-0.156818053754076
264	0.0001	-7.17368225097656	-6.65037048339844	-1.97349609375	-0.213545363287553	0.959367550431727	-0.184424187668034	0.196510180338189	-0.14273783645668	-0.970056523645462	-0.956965060408079	-0.2433923031287	-0.158044487204925
265	0.0001	-7.25511291503906	-6.08394836425781	-2.38244567871094	-0.208702817455911	0.960755852256178	-0.182732937210208	0.197336659598264	-0.141633770561274	-0.970050574874937	-0.957862921698384	-0.238512195478767	-0.160032983610675
266	0.0001	-7.8796142578125	-5.73547302246094	-2.11420349121094	-0.203258557876446	0.962545574316026	-0.17942122509508	0.195852449258626	-0.139574144689471	-0.970649718618205	-0.959337154898832	-0.232432948393369	-0.160147268886424
267	0.0001	-7.7359130859375	-4.64454162597656	-2.62673767089844	-0.198105692151548	0.965260801082562	-0.170369365293784	0.193672371586631	-0.131839939082389	-0.972167291646228	-0.960856465462541	-0.225587713220828	-0.160826106160136
268	0.0001	-8.28018127441406	-5.62470336914062	-2.41956848144531	-0.192119391792029	0.968171130130819	-0.16042070339789	0.191673638675797	-0.123299157541654	-0.973682974066148	-0.962471482971959	-0.217811800715047	-0.16188472421766
269	0.0001	-8.06762329101563	-4.85470458984375	-3.15004943847656	-0.186387708168894	0.970574087569915	-0.152464955912415	0.189098387561551	-0.116843155923832	-0.974981782771033	-0.964106540826878	-0.210555497319796	-0.16175586692063
270	0.0001	-8.89151000976562	-4.36671936035156	-2.89258483886719	-0.180803039090608	0.972539140312014	-0.146553340517266	0.185521192139037	-0.112610021708002	-0.976166415258297	-0.965863421153794	-0.203682604981606	-0.160066386555693
271	0.0001	-8.73822875976563	-3.98411499023438	-3.79251342773438	-0.17416711262636	0.974976940130771	-0.13815130507033	0.18197515212404	-0.10601146360914	-0.977571794597655	-0.967755579104987	-0.195400961606351	-0.15895786647563
272	0.0001	-8.65140930175781	-4.167333984375	-2.66266296386719	-0.165622704199959	0.976836687993355	-0.135496143279676	0.179245126601777	-0.105287875577106	-0.978154204533198	-0.969763014577791	-0.186291567835566	-0.15765515313608
273	0.0001	-9.33997741699219	-3.04466857910156	-3.71527404785156	-0.157495344752886	0.978386127660025	-0.133999259638221	0.175591946682344	-0.105785026298965	-0.978762993002511	-0.971783249825533	-0.177679805868165	-0.155136075576175
274	0.0001	-8.68972961425781	-2.68661315917969	-2.92791137695313	-0.151095929050385	0.979395160758602	-0.133996788420593	0.17090382785458	-0.107630139510416	-0.979391461415516	-0.973633350830308	-0.170882626827891	-0.151119906032748
275	0.0001	-8.88492370605469	-1.73698791503906	-2.93809020996094	-0.145214762863881	0.97914835429371	-0.142060455195333	0.168838357475621	-0.116952642491245	-0.978680585512582	-0.974887830312453	-0.166104123062113	-0.148334549618237
276	0.0001	-9.25495422363281	-1.43282043457031	-2.97162048339844	-0.137233120511131	0.978991273238763	-0.150808347106925	0.167786434792888	-0.127073904284946	-0.977599066667554	-0.976224760459532	-0.159462565425637	-0.146822707009525
277	0.0001	-9.59025695800781	-0.87897216796875	-3.05245239257813	-0.128689435197988	0.979248312332801	-0.156562358380886	0.169220571522438	-0.133875527126844	-0.976443414341112	-0.977140433838475	-0.152151523258468	-0.148480593102552
278	0.0001	-9.37650146484375	-0.595761108398438	-3.17220336914063	-0.121769828960571	0.980282145305469	-0.155624626425967	0.170974649815226	-0.13373149788614	-0.976157546502454	-0.977721728241464	-0.14547440348198	-0.151318934889485
279	0.0001	-9.53277648925781	-1.14242431640625	-1.65675476074219	-0.11344137773652	0.982880193174537	-0.145181196035934	0.175825126528067	-0.123958195141061	-0.976585833779479	-0.977863271985726	-0.136311744624426	-0.158753045888309
280	0.0001	-8.98491577148438	0.096998291015625	-5.08283020019531	-0.107486319411001	0.985070128007911	-0.134475031310476	0.18349870036347	-0.113278642728905	-0.976471287886344	-0.977125845582028	-0.129633298222232	-0.168583183881525
281	0.0001	-9.15615966796875	0.0987945556640625	-4.29127624511719	-0.106243718188902	0.986022614245968	-0.128342029518563	0.185725063764363	-0.107122618321279	-0.976745076943681	-0.976841068462583	-0.127609360313185	-0.171748007631353
282	0.0001	-8.61907653808594	0.838855590820313	-3.72006408691406	-0.104822258534846	0.986133909803109	-0.128655377081912	0.188330130774366	-0.107343437508941	-0.976221874507161	-0.976495804373047	-0.126559465707624	-0.174466746635675
283	0.0001	-8.82564697265625	0.83107177734375	-3.49792602539063	-0.103540677719016	0.985879878384034	-0.131606205989569	0.192663681133983	-0.109931293918524	-0.975087594316173	-0.97578687941035	-0.126316966456929	-0.178560885850539
284	0.0001	-9.20765258789063	0.735869750976562	-4.35594177246094	-0.102929189961783	0.985289924198722	-0.136416080893305	0.196858852711402	-0.114253570962603	-0.973751874776857	-0.975013935266036	-0.127082204870592	-0.182203016556442
285	0.0001	-9.43937072753906	1.08554260253906	-4.22241943359375	-0.103319206981554	0.984910341793818	-0.138840772456389	0.198391019258871	-0.116376839610258	-0.973189310812524	-0.974662067049975	-0.128093910198387	-0.183373403807528
286	0.0001	-9.26154052734375	0.908909912109375	-4.17930908203125	-0.104858812531746	0.984840070046272	-0.138183450042637	0.199684367164144	-0.115269126834073	-0.97305661803883	-0.974233433497684	-0.12962663626803	-0.184570182383689
287	0.0001	-8.96096557617188	0.565224609375	-4.37989196777344	-0.106609615091019	0.985068133656187	-0.135185657616709	0.200633860219412	-0.111851464835423	-0.973260141970084	-0.973848265441595	-0.130881709452801	-0.185713580621101
288	0.0001	-8.92743530273438	0.361049194335938	-3.98710876464844	-0.108231508422746	0.984974930122155	-0.134574617277528	0.201709205539541	-0.110795871005011	-0.973158605453833	-0.973447141341092	-0.132471362939682	-0.18668690638542
289	0.0001	-9.10646301269531	0.73048095703125	-4.37150939941406	-0.109160634655045	0.984685050823726	-0.135938613079519	0.202170703363561	-0.111904295036903	-0.972935987336154	-0.973247636803291	-0.133689114876901	-0.186858925449763
290	0.0001	-9.02143981933594	0.665216674804687	-4.05955810546875	-0.109560839558168	0.984161195628805	-0.1393670099191	0.203254032876534	-0.115066125620191	-0.972341290316411	-0.972976988707716	-0.134857434920139	-0.187427990684492
291	0.0001	-9.05616760253906	0.931063842773438	-4.31043640136719	-0.110165640906983	0.983658320326203	-0.14240730464617	0.203715074034921	-0.117890693915143	-0.971906349860496	-0.972812263581469	-0.136081200543056	-0.187398523698188
292	0.0001	-9.04059997558594	0.789158935546875	-4.19188293457031	-0.110973486647527	0.983209616758442	-0.144857636232988	0.204572472869251	-0.120037244481781	-0.971463413248992	-0.972540481730941	-0.137440566976925	-0.187816671101398
293	0.0001	-9.16394348144531	0.871787109375	-4.37150939941406	-0.111947534537063	0.982919603727801	-0.146071222760184	0.205195199901626	-0.12096188693535	-0.971217355614268	-0.972297629045965	-0.138698502214774	-0.18814899955879
294	0.0001	-8.94420043945312	0.67300048828125	-4.13859375	-0.113062521458725	0.982640486563009	-0.147086846484002	0.206258518255904	-0.121599250730991	-0.970912481055085	-0.971943563118906	-0.140111728234558	-0.188929652841609
295	0.0001	-8.9909033203125	0.659229125976563	-4.35654052734375	-0.114118941362133	0.982326440317755	-0.148363175603091	0.206828944152128	-0.122574684151634	-0.970668447342368	-0.971698849995873	-0.14145745458538	-0.189185447270457
296	0.0001	-9.00227966308594	0.535286865234375	-4.09847717285156	-0.11533421613343	0.981854234952192	-0.150533318223352	0.206944824765663	-0.12446869769357	-0.970402691050048	-0.971530677895246	-0.143072724867154	-0.188834152915969
297	0.0001	-9.02084106445313	0.5221142578125	-3.92902954101563	-0.116353746204609	0.981163490844591	-0.154207684561471	0.206844606485848	-0.127920042568838	-0.969975139617971	-0.971430447593583	-0.144757269050101	-0.188064399994493
298	0.0001	-8.88133117675781	0.581390991210938	-3.85418518066406	-0.117590318873408	0.980001759217745	-0.160527470662734	0.206399162808081	-0.134000290926142	-0.969248836792613	-0.971376292946958	-0.14710701533861	-0.186514405713854
299	0.0001	-8.93581787109375	0.6753955078125	-4.53377197265625	-0.118987785973433	0.97860777525203	-0.167835422379822	0.205127663709953	-0.141161011270406	-0.968502044643176	-0.971475449185432	-0.14966760208338	-0.183943090429008
300	0.0001	-9.05676635742187	0.456251220703125	-3.78532836914062	-0.120375934862142	0.97762781505536	-0.172491998469924	0.203644032637085	-0.145742532376416	-0.968136468803761	-0.971616561343708	-0.151667298672431	-0.181544177092069
301	0.0001	-9.0867041015625	0.12693603515625	-3.8559814453125	-0.124482274580038	0.976852849709616	-0.173961700755032	0.200952712879441	-0.146871409707992	-0.96852815973351	-0.971659493084781	-0.155522664022291	-0.178018343081933
302	0.0001	-9.02263732910156	0.04071533203125	-3.53564758300781	-0.130122121836202	0.976138577897258	-0.17384392468408	0.199036714827025	-0.146048969214567	-0.96904803015239	-0.971314892071418	-0.160695909506377	-0.175283213994405
303	0.0001	-9.43398193359375	-0.22273681640625	-3.975732421875	-0.136059005880692	0.975427616057046	-0.173288524582632	0.197702904283318	-0.144663676096487	-0.969528742460063	-0.970773664948066	-0.166172761460831	-0.173162076655897
304	0.0001	-9.07652526855469	-0.48618896484375	-3.36979248046875	-0.142633357746133	0.974340248779182	-0.174117215883398	0.197945390836485	-0.144281557982681	-0.969536205756485	-0.969780051096461	-0.172753904832893	-0.1722867982764
305	0.0001	-9.8052099609375	-0.55324951171875	-4.0284228515625	-0.15008287428087	0.972856639313611	-0.176139405559971	0.19773918206844	-0.145020602372072	-0.969468019463533	-0.96869724203308	-0.180330208869919	-0.170606767293781
306	0.0001	-8.96156433105469	-1.082548828125	-3.14286437988281	-0.157987271888506	0.971473140726132	-0.176861411192303	0.19816093572652	-0.144274733055224	-0.969493189740822	-0.967353226837652	-0.188214606897418	-0.169714455121634
307	0.0001	-9.48188232421875	-1.35138977050781	-3.89490051269531	-0.166661415210507	0.969584891534488	-0.179245950548643	0.198709644048257	-0.145031270900277	-0.969267975238667	-0.965783852651434	-0.197157471502112	-0.168494751813367
308	0.0001	-9.10047546386719	-1.65974853515625	-3.11232788085938	-0.174005696948334	0.967582066311576	-0.183049070966629	0.199509549316238	-0.147390652556158	-0.968747611749676	-0.964322537930726	-0.205087641000845	-0.167395048754593
309	0.0001	-8.9525830078125	-1.85494262695313	-3.03628601074219	-0.181574893132108	0.965258758810146	-0.187899139764825	0.202606611332382	-0.150255041616154	-0.967664189434195	-0.96227912750328	-0.213773129764302	-0.16828526305741
310	0.0001	-9.034013671875	-2.24772583007813	-3.59312805175781	-0.190680333273935	0.963093999646454	-0.189976204687683	0.20525390397922	-0.150133682643169	-0.967124972398753	-0.959954085049817	-0.223405069729841	-0.169051262684353
311	0.0001	-8.82684448242188	-2.77403137207031	-3.00634826660156	-0.198643395273236	0.960449256907983	-0.195135917809162	0.209900140108193	-0.152792546505859	-0.96571029243496	-0.957331046554368	-0.232791027827875	-0.171247203381428
312	0.0001	-9.04598876953125	-3.05784118652344	-3.59911560058594	-0.206525978827712	0.957407879730868	-0.201784964500579	0.214816384237579	-0.156831328301475	-0.963980215318908	-0.954568458064872	-0.242433674006809	-0.17327715537604
313	0.0001	-9.41482177734375	-2.59380615234375	-4.33259033203125	-0.216548290335776	0.955032884151133	-0.202531548511882	0.214766261937456	-0.155770787137208	-0.964163323616941	-0.952356178478443	-0.25228486293201	-0.171376944917666
314	0.0001	-8.55860229492188	-3.90807312011719	-3.05903869628906	-0.226072827114117	0.952343055066704	-0.204777396962771	0.21607878035982	-0.155955499766137	-0.963840154159863	-0.949842638292704	-0.262146118718001	-0.170523825086832
315	0.0001	-8.63943420410156	-4.23858581542969	-3.49493225097656	-0.236180079635465	0.94918563097311	-0.20800386519862	0.218226676820927	-0.156779836123557	-0.963222300670393	-0.946887579128104	-0.272885911947192	-0.170109351752539
316	0.0001	-8.44543762207031	-4.51580932617188	-3.18597473144531	-0.246974039751171	0.945539479968376	-0.212035175171763	0.21983611764875	-0.158436609577699	-0.962585020724221	-0.943756274186356	-0.284346500886959	-0.168733998847982
317	0.0001	-8.53824462890625	-4.79662536621094	-3.55780151367188	-0.256310411694043	0.941463456463778	-0.218978384779196	0.220546839927337	-0.163608770694922	-0.961556686602387	-0.941097266097026	-0.294751980985662	-0.165702158856583
318	0.0001	-7.980205078125	-5.30736328125	-2.94288024902344	-0.265974019112812	0.936580346693313	-0.228199639230237	0.221261315857948	-0.171092824341821	-0.960088889407407	-0.938243705687273	-0.305850453075635	-0.161722753784499
319	0.0001	-7.92691589355469	-5.16306335449219	-2.62673767089844	-0.276457860921277	0.9313203489313	-0.237093776386714	0.220263867904205	-0.17873703752036	-0.958924866668043	-0.935443680630059	-0.31732550966622	-0.155722963253217
320	0.0001	-7.39282653808594	-5.6761962890625	-2.45130249023437	-0.286502164554939	0.926551794911742	-0.243758653284686	0.21968415452813	-0.18411341547928	-0.958040250975821	-0.932553152348216	-0.328030519291092	-0.150799855633291
321	0.0001	-7.34013610839844	-5.84324890136719	-1.92020690917969	-0.296319974264274	0.922355266838135	-0.247901663140798	0.218876935848071	-0.187070989832249	-0.957651988833596	-0.929670565203492	-0.338031369105201	-0.146449423676177
322	0.0001	-6.98926574707031	-6.35518432617188	-1.79207336425781	-0.306645682716909	0.918001991687017	-0.25147717297948	0.218357726764255	-0.189311393702386	-0.957330193494808	-0.926438518431433	-0.348473154594626	-0.142401306501877
323	0.0001	-6.90544006347656	-7.03117858886719	-1.42503662109375	-0.317969380710126	0.91353921819306	-0.25365640097193	0.216930400789032	-0.190343344865108	-0.957450057328879	-0.922949984638566	-0.359465586515283	-0.137651073250067
324	0.0001	-6.6916845703125	-6.9695068359375	-1.36575988769531	-0.329418628172588	0.908187415392293	-0.258222744807573	0.215322348560076	-0.194020847915768	-0.957074812532761	-0.919303896229894	-0.370879399666675	-0.13163896565768
325	0.0001	-6.28692626953125	-7.3718701171875	-0.946631469726563	-0.341517657693299	0.901872044360857	-0.264560966667517	0.213296481578512	-0.199770182944116	-0.95634537953226	-0.915352555264861	-0.383038757316858	-0.124141088940154
326	0.0001	-5.95820983886719	-7.31858093261719	-0.805325317382813	-0.35290262652815	0.895616318824573	-0.270797240836486	0.212080093516541	-0.205318920868727	-0.955440304083576	-0.911307725262739	-0.394608096962572	-0.117484806200756
327	0.0001	-5.94024719238281	-7.77303588867188	-0.513132934570313	-0.363423410678901	0.889751417440166	-0.276162705182527	0.210312176944506	-0.210424708108356	-0.954719974886027	-0.907574907541729	-0.405047969234175	-0.11065229242945
328	0.0001	-5.52411254882812	-7.74429565429688	-0.0526904296875	-0.373777078602703	0.884058551969183	-0.28059075573044	0.208621070292519	-0.214633938220023	-0.954153824911983	-0.903752147738102	-0.415177972987867	-0.104207994916192
329	0.0001	-5.21515502929688	-8.12929504394531	0.137114868164063	-0.38443456941925	0.878223460598779	-0.284488339109604	0.206506513121775	-0.218549575047368	-0.95372487819334	-0.899758368604439	-0.425393507826013	-0.097340852809897
330	0.0001	-4.9864306640625	-8.17240539550781	0.550255737304688	-0.394552088934642	0.87234766790429	-0.288683555851829	0.203707391951369	-0.223313139705051	-0.953223237284658	-0.89600889927594	-0.434903193753528	-0.0895950025464602
331	0.0001	-4.57807983398438	-8.15623901367188	0.879570922851563	-0.404490263132833	0.866244094764627	-0.293272561478471	0.201310236737345	-0.228476707400952	-0.952508573588697	-0.892110876301531	-0.44431921234697	-0.0819672002930595
332	0.0001	-4.41940979003906	-7.95924865722656	1.03045715332031	-0.414171948597972	0.86012682314651	-0.297730490710056	0.198104875575015	-0.234077663847654	-0.951820416654861	-0.888378328904959	-0.453199178498281	-0.0734469151191278
333	0.0001	-3.98291748046875	-7.86644165039063	1.53580627441406	-0.423485288989313	0.854305203852365	-0.301368260904175	0.194644475175551	-0.239093450076994	-0.95128746991323	-0.884745013149706	-0.461515916086378	-0.0650332292422782
334	0.0001	-3.68653381347656	-8.03708679199219	1.99684753417969	-0.432284135257043	0.849259520651366	-0.303131478055452	0.191287346728679	-0.242148449697555	-0.95119571029866	-0.881214830439532	-0.469172031233836	-0.0577756672081277
335	0.0001	-3.20273986816406	-8.16821411132813	2.25970092773438	-0.441509922114758	0.844934442630392	-0.301918492860391	0.186839682890556	-0.242538147140328	-0.951980136388934	-0.877587557780748	-0.476719031336706	-0.0507842848705865
336	0.0001	-3.20513488769531	-8.37957458496094	2.61416381835937	-0.450642420760841	0.839899147664796	-0.302474511922506	0.182593670404505	-0.244943880411566	-0.95218803131374	-0.873831196592924	-0.484326250786465	-0.0429781649225076
337	0.0001	-2.67403930664062	-8.26700866699219	2.58242980957031	-0.459712999622603	0.834697938208909	-0.303221552544975	0.178571551493707	-0.24758254048459	-0.952268390026849	-0.869928824085694	-0.491916901109316	-0.035236393514208
338	0.0001	-2.29981750488281	-8.31011901855469	2.72852600097656	-0.467497799700488	0.830178475232254	-0.30372603862075	0.175006360817409	-0.249866135424056	-0.952333811245666	-0.866497882829871	-0.498367950042234	-0.0284746452489314
339	0.0001	-2.14414123535156	-8.43645629882812	3.30273193359375	-0.474838625589179	0.825358522563632	-0.305469456542153	0.172031508392833	-0.253351641832073	-0.951954886379118	-0.863095266913604	-0.504575321248049	-0.0216865262031977
340	0.0001	-2.08965454101563	-8.41669738769531	3.23507263183594	-0.482155504755467	0.820477242417239	-0.307153323129353	0.168960802310438	-0.256929806914191	-0.951545753814103	-0.859638480127905	-0.510689895136413	-0.0147483724168354
341	0.0001	-1.72800659179687	-8.27419372558594	3.53864135742188	-0.489559664655856	0.816085519905402	-0.307141268706723	0.166142372783032	-0.258484512156047	-0.951620969158138	-0.855995354372948	-0.516904421703065	-0.00904279358111082
342	0.0001	-1.50706604003906	-8.52746704101563	3.69192260742188	-0.496409362496607	0.811891607523518	-0.307261716552178	0.163791214596121	-0.259995270035873	-0.951616991010617	-0.852496441544972	-0.52271835360149	-0.0039166262660334
343	0.0001	-1.38731506347656	-8.3202978515625	3.58654174804688	-0.503710301039025	0.80651131356209	-0.309540681855434	0.16095117828344	-0.264426954858653	-0.950880173183431	-0.84874651742222	-0.528789075757558	0.00338563481794141
344	0.0001	-0.82149169921875	-8.10773986816406	4.15655639648438	-0.511014398191467	0.80160658415543	-0.310308184035931	0.158056983294573	-0.267219479528399	-0.950584946121277	-0.844915543041334	-0.534808969632369	0.00985348303556766
345	0.0001	-0.643661499023438	-8.04546936035156	4.44455749511719	-0.51837836720136	0.797577342929697	-0.308470825950942	0.154786993738598	-0.267250273372055	-0.951114229707415	-0.841026072715358	-0.540784313222717	0.0150821611586164
346	0.0001	-0.310753784179688	-7.71016662597656	4.03141662597656	-0.525539407739982	0.794234985083692	-0.304957569805074	0.151506840285767	-0.265349496373145	-0.952173997818225	-0.837170238517192	-0.546608116701194	0.0191195841336017
347	0.0001	-0.264050903320313	-8.21910827636719	4.11045227050781	-0.532307900817498	0.790956384675181	-0.301722217062044	0.148425321024858	-0.263692497108883	-0.953119190367684	-0.833437593828078	-0.552136092381261	0.0229676442852796
348	0.0001	0.039517822265625	-8.42507995605469	4.30265258789063	-0.538266193707265	0.787804383749155	-0.299388973840901	0.146401912283123	-0.262435307808421	-0.953778899585928	-0.829961435725624	-0.557218056205211	0.02592398594253
349	0.0001	0.0832269287109375	-8.40532104492187	4.07213195800781	-0.544350287635838	0.784274845958999	-0.297650349146057	0.144398177266413	-0.261926024591097	-0.954224252492066	-0.826336451303535	-0.562412414192551	0.0293316485930996
350	0.0001	0.4646337890625	-8.21252197265625	4.14877258300781	-0.550913674363402	0.779814145692699	-0.297294503105896	0.141854105760054	-0.26354622892721	-0.954159733953001	-0.82241810296128	-0.56783209084712	0.0345713830466298
351	0.0001	0.5412744140625	-8.20833068847656	4.186494140625	-0.556676160419742	0.775759214693044	-0.297168795870572	0.139520817878688	-0.265332002053686	-0.954008841711986	-0.818929541412932	-0.572535212458601	0.039469440028827
352	0.0001	0.846040649414063	-8.01553161621094	4.24457336425781	-0.561737372161499	0.771956546649947	-0.297546995954221	0.138410892436315	-0.266893737082066	-0.953734846779414	-0.815655288447317	-0.576932251820486	0.0430769919709675
353	0.0001	0.896336059570313	-7.84907775878906	4.378095703125	-0.56695798077694	0.768253578660981	-0.297229014243109	0.136642840675656	-0.268115675388536	-0.953647061917058	-0.81233452599617	-0.58129202943576	0.0470339705854551
354	0.0001	1.0585986328125	-8.09157348632812	4.51042053222656	-0.572056447310944	0.76407390323265	-0.298232277744721	0.134724531992044	-0.27113250026185	-0.953066874768651	-0.809073990169939	-0.585387254473977	0.0521635958299745
355	0.0001	1.28971801757813	-7.67484008789063	4.71459594726563	-0.576681441603471	0.760234034262524	-0.299136637774565	0.133281637839096	-0.273701457249017	-0.952535310271852	-0.806023895380944	-0.589178856926055	0.0565133137078019
356	0.0001	1.63100830078125	-7.48084350585937	4.71399719238281	-0.581149521202921	0.757295026113115	-0.297942070594189	0.131985619992604	-0.273556680123823	-0.95275733472632	-0.803022434381994	-0.593018537808026	0.0590252801369658
357	0.0001	1.84356628417969	-7.71615417480469	4.42180480957031	-0.584903078907242	0.754629837803354	-0.297358699522499	0.131034411330161	-0.273881967087975	-0.952795177963963	-0.800448856162707	-0.596257055304929	0.0613119292381912
358	0.0001	1.80285095214844	-7.87482421875	4.47150146484375	-0.588819185029646	0.752100633683571	-0.296034802267901	0.130302294583426	-0.273140041230282	-0.953108508986786	-0.797692471675218	-0.599782589518478	0.0628296581495605
359	0.0001	2.03756286621094	-7.69400024414062	4.52239562988281	-0.592036517644293	0.749740668939195	-0.295603942995059	0.129930590571044	-0.273199698466653	-0.953142154346134	-0.79536834448542	-0.602702956767542	0.0643299502112699
360	0.0001	2.15970886230469	-7.597001953125	4.40923095703125	-0.594568578943029	0.747959964723683	-0.29503236450297	0.130662430826001	-0.272176170045663	-0.953334915771952	-0.793357128980579	-0.605372632045603	0.0640971314948797
361	0.0001	2.2752685546875	-7.88320678710938	4.63256652832031	-0.596937201478238	0.746324989937196	-0.294389175899139	0.13099409269228	-0.271346235256849	-0.953525966238813	-0.791521651738634	-0.607758364818766	0.0642124973954811
362	0.0001	2.4381298828125	-7.57604553222656	4.53916076660156	-0.599347846081414	0.744663590880004	-0.293697626506018	0.131001394429804	-0.270707393962433	-0.953706527979921	-0.789696646855624	-0.610076751951561	0.0646959247033116
363	0.0001	2.13456115722656	-7.85686157226563	4.5553271484375	-0.602176187761467	0.743107805350169	-0.291846926522658	0.131075861787677	-0.268572927323471	-0.954299586694619	-0.78752965490176	-0.612910574502151	0.0643247255241622
364	0.0001	2.23155944824219	-7.98260009765625	4.61520263671875	-0.604529910238399	0.74137979555313	-0.291375335903285	0.130725205007024	-0.268489779307697	-0.954371080441552	-0.785782736131957	-0.615035964113403	0.0653930764230616
365	0.0001	2.45788879394531	-7.55808288574219	4.58646240234375	-0.605926297576081	0.740336067324799	-0.291128544330152	0.130942740631889	-0.268151247169934	-0.95443643440358	-0.784670198606748	-0.616439304440639	0.0655382587439428
366	0.0001	1.82799865722656	-7.96403869628906	4.76309509277344	-0.606098119588291	0.74071971051776	-0.289791959657309	0.131940264724796	-0.265662059905554	-0.954994992903674	-0.784370343636148	-0.617055897287453	0.0632865202621213
367	0.0001	1.41246276855469	-8.44962890625	3.80149475097656	-0.605880569514565	0.741315812380216	-0.288720629328364	0.132269697930359	-0.263999551120149	-0.955410364198427	-0.78448292683405	-0.617053566008187	0.0618985798097357
368	0.0001	1.57352783203125	-8.33167419433594	4.24277709960938	-0.605185899892152	0.741028611424714	-0.290906554793267	0.132676801740667	-0.266425117213469	-0.954680325133841	-0.784950248647387	-0.616355622970822	0.0629194181525466
369	0.0001	1.57652160644531	-8.19934936523438	4.454736328125	-0.603276691419439	0.741205765469165	-0.294399807787445	0.133295724139841	-0.270238538935209	-0.953521568712632	-0.78631385814829	-0.614479572735688	0.0642290524180187
370	0.0001	1.44000549316406	-7.79279479980469	4.48407531738281	-0.602008977188892	0.741533312186025	-0.296164714816616	0.133853839458848	-0.271939023227858	-0.952959766888405	-0.787190155582569	-0.613333118757092	0.0644526523084135
371	0.0001	1.31546447753906	-7.70058654785156	4.6223876953125	-0.60121347611651	0.741845620862296	-0.296997358478722	0.134766169877551	-0.272215233710356	-0.952752300439391	-0.787642327197084	-0.612832718891095	0.0636837739468262
372	0.0001	0.91729248046875	-7.88260803222656	4.61520263671875	-0.600396830402717	0.742086206246963	-0.298046487213591	0.135768119077597	-0.272698902465862	-0.9524716932466	-0.788093055345942	-0.612326196640242	0.0629759082792227
373	0.0001	0.980161743164063	-7.7023828125	4.64813415527344	-0.599553265532039	0.742226923486908	-0.299391175289165	0.137568328323955	-0.272940767042355	-0.952144050408594	-0.788423006280272	-0.612047818178849	0.0615356110759379
374	0.0001	0.744252319335937	-7.85506530761719	4.76010131835938	-0.598496421894415	0.742808283896467	-0.300063137280086	0.140800859159584	-0.271190800638368	-0.952171553717629	-0.788655280233072	-0.612120415460803	0.0577186792692661
375	0.0001	0.551453247070313	-7.35330871582031	4.58346862792969	-0.597086637650679	0.743844930035993	-0.300303625017675	0.14455338521087	-0.268460711195598	-0.952382888006936	-0.789044907443857	-0.612065001943505	0.0527690006804444
376	0.0001	0.207767944335938	-8.06043823242188	4.02722534179687	-0.59491208943359	0.744981354092075	-0.301798588301698	0.148592594795648	-0.267065775822099	-0.952153407889945	-0.789936609240043	-0.611292608690534	0.048181946231611
377	0.0001	0.166453857421875	-7.65029113769531	4.34696044921875	-0.592777556400131	0.746200453121362	-0.30298457450795	0.153998107725324	-0.264244571588314	-0.952081608478563	-0.79050575674394	-0.611031660511616	0.0417247936736517
378	0.0001	-0.337098999023438	-8.09935729980469	3.28536804199219	-0.589940768077866	0.748430680941553	-0.303020471231007	0.160562715104447	-0.259050850430924	-0.952424417688513	-0.791321366246348	-0.610527782100355	0.0326545954749976
379	0.0001	-1.01249450683594	-8.68853210449219	3.66497863769531	-0.586484209783241	0.750851199889648	-0.303741250572264	0.168859368618061	-0.253421013291431	-0.952504227629597	-0.792163357714074	-0.609918245051433	0.0218391631832134
380	0.0001	-0.689765625	-8.07540710449219	3.58414672851563	-0.582762680209974	0.753176571086694	-0.305143755172177	0.175993184595635	-0.249611264167377	-0.952218785666745	-0.793356198394122	-0.608620792913662	0.0129101860084129
381	0.0001	-1.99085998535156	-8.60590393066406	3.28536804199219	-0.578026064950513	0.756401162141503	-0.306175031883415	0.182885749076232	-0.245578966433565	-0.951968368187855	-0.795260127896936	-0.606257579875424	0.00361605046182656
382	0.0001	-1.94834838867188	-8.52626953125	3.25183776855469	-0.573610270955045	0.759323706503989	-0.307243821412123	0.18968322732765	-0.241759626230343	-0.95161576090118	-0.796863558161275	-0.604135574077549	-0.00535516652809209
383	0.0001	-2.8021728515625	-8.61488525390625	1.98427368164063	-0.568803255245603	0.762165049784591	-0.309139602297825	0.195538491712624	-0.239774814313103	-0.950932561583559	-0.798891453878909	-0.601342228109725	-0.0126479093637523
384	0.0001	-2.80935791015625	-8.4160986328125	2.68421813964844	-0.562750052186545	0.765747414404465	-0.311357151992561	0.203316191609509	-0.236869455676953	-0.950029150708919	-0.801233364877828	-0.597932904513693	-0.0223905494879405
385	0.0001	-2.58781860351562	-7.78980102539063	2.38903198242188	-0.557903277060107	0.768905177198238	-0.312295952460705	0.208734112714979	-0.234198737513007	-0.94951620393567	-0.803227242836474	-0.594925020338748	-0.0298364967825809
386	0.0001	-4.40623718261719	-8.92204650878906	1.48311584472656	-0.552203400234438	0.773075121377026	-0.312131801451602	0.214326925148855	-0.230172389756722	-0.949254781473297	-0.805689378064377	-0.591079967264648	-0.0385888374100674
387	0.0001	-4.4068359375	-8.34245178222656	0.7616162109375	-0.545628288498096	0.778403303033097	-0.310448173803299	0.220907780592512	-0.223751747041778	-0.949281258726539	-0.808386988554572	-0.586535125566165	-0.0498700632920571
388	0.0001	-4.74153991699219	-7.41557922363281	0.32811767578125	-0.53840678919011	0.782990083295278	-0.311519917204744	0.228050696330949	-0.220496917231527	-0.948353304098405	-0.811240413969229	-0.581642191516956	-0.0598443964827723
389	0.0001	-5.61332702636719	-7.79039978027344	-0.39038818359375	-0.530505261995698	0.787919207687553	-0.312645948561461	0.23416995724121	-0.218253686706304	-0.94738047233662	-0.814695402049457	-0.575802614092821	-0.0687222779260674
390	0.0001	-6.16777404785156	-8.09756103515625	0.46223876953125	-0.523088104783733	0.792921899060689	-0.312495914571301	0.240072139795834	-0.214729353204798	-0.946708335532173	-0.817767816881792	-0.570233431905075	-0.078036086589141
391	0.0001	-6.51744689941406	-7.48443603515625	-0.640667724609375	-0.517656940353708	0.797203309611942	-0.310641554283074	0.242473399302498	-0.211495534227812	-0.946824318251482	-0.820510781607609	-0.565452493270176	-0.0838184652699665
392	0.0001	-6.42104736328125	-6.42164611816406	-1.60286682128906	-0.511900082198498	0.800775080254544	-0.310994496235061	0.246077281712783	-0.21016292183852	-0.946191057719922	-0.823045732186261	-0.560883960483472	-0.0894701380481585
393	0.0001	-7.18745361328125	-6.60666137695313	-0.889151000976563	-0.505883447528829	0.804393356625002	-0.311501629745189	0.249704344092539	-0.209096999944518	-0.945476697309626	-0.825669230417158	-0.556084321332444	-0.095081804308574
394	0.0001	-7.35151245117188	-5.68457885742187	-2.49620910644531	-0.500217093160229	0.810401240155351	-0.305012605747698	0.251446890323729	-0.201123526510993	-0.946743781828172	-0.828587545801202	-0.550271893738406	-0.103167445954093
395	0.0001	-7.89697814941406	-6.40009094238281	-2.39621704101563	-0.495748593785278	0.814526911180951	-0.301295938774387	0.251198824623434	-0.197612953317758	-0.947548558749809	-0.831343781036296	-0.545431051227424	-0.106641858991776
396	0.0001	-7.78081970214844	-5.431904296875	-2.34113159179687	-0.490588671354563	0.81867794773656	-0.298478095391302	0.25018912615947	-0.195774327918317	-0.948197138616065	-0.834702436015449	-0.539850748279546	-0.108779652931458
397	0.0001	-7.769443359375	-4.99421447753906	-2.65907043457031	-0.484652067005245	0.822878231891107	-0.296620615310719	0.249009897429252	-0.195282580619303	-0.948608868126869	-0.838514427383224	-0.533606717711117	-0.110260717772705
398	0.0001	-8.06283325195313	-4.81578552246094	-2.15671508789063	-0.478459365742241	0.826380323591179	-0.296938034133169	0.247367894007542	-0.197616752335127	-0.94855508232827	-0.842547185828666	-0.527297999216625	-0.109868374313715
399	0.0001	-9.03820495605469	-4.37270690917969	-2.88779479980469	-0.470943521775015	0.831178995609769	-0.295556553903448	0.245028670874994	-0.198604014526924	-0.948955950433435	-0.847450971884144	-0.519324486877834	-0.110131410513508
400	0.0001	-9.13161071777344	-3.69012634277344	-2.46866638183594	-0.464122013053233	0.836959372846889	-0.289982353261637	0.241510141627293	-0.195402803692447	-0.950521223224551	-0.852211011716336	-0.511191502778433	-0.111443434066558
401	0.0001	-9.04598876953125	-3.38416259765625	-3.10634033203125	-0.457280097329282	0.841687630983845	-0.287152998304608	0.239305625426753	-0.194522512975531	-0.951259065441584	-0.856520712082103	-0.50370916588294	-0.112469311280364
402	0.0001	-9.19807250976563	-2.21180053710937	-2.62374389648438	-0.451206808648787	0.846443121962727	-0.282748045282313	0.234609678372931	-0.193181180195778	-0.952701070867413	-0.861028869807933	-0.496200637746625	-0.111419084797512
403	0.0001	-9.89382568359375	-1.95553344726563	-2.92970764160156	-0.444514096912145	0.850732064341591	-0.28046777416929	0.230990931871199	-0.193650200720332	-0.953489794992191	-0.865476982385814	-0.488625167651106	-0.110431148224918
404	0.0001	-9.16933227539062	-2.1124072265625	-3.03448974609375	-0.437696495786774	0.854924165476376	-0.278435717645025	0.227427981102449	-0.19433402205595	-0.954206896476452	-0.869884067555926	-0.480977087974136	-0.109374356483949
405	0.0001	-9.88783813476562	-1.56873779296875	-2.63512023925781	-0.430122638470343	0.858468891768318	-0.279330767623954	0.225211439207694	-0.197596554095925	-0.954062581521472	-0.874227844171821	-0.473272399021423	-0.10834626342979
406	0.0001	-9.34356994628906	-0.4933740234375	-2.70697082519531	-0.424162138801887	0.86041992111335	-0.28242528101837	0.224937873066501	-0.201993605454995	-0.953205925608738	-0.877205468101589	-0.467842006137316	-0.107862987285188
407	0.0001	-9.16394348144531	0.0484991455078125	-2.222578125	-0.41950917946872	0.862169933964867	-0.284033542576397	0.226380849980735	-0.203645122314291	-0.952512663915602	-0.879069826068146	-0.463887560864283	-0.109747764313926
408	0.0001	-9.26154052734375	0.400567016601563	-2.86264709472656	-0.416404975005894	0.864507011331882	-0.281486277016052	0.227113353718876	-0.200882288575687	-0.952924881981344	-0.880355849275113	-0.460731954062893	-0.112692702303581
409	0.0001	-9.41482177734375	0.353265380859375	-2.28544738769531	-0.414313380377744	0.866327487738511	-0.278964346877244	0.228762887101441	-0.19754329287509	-0.953228298428598	-0.880915412695782	-0.458751927983684	-0.11633874782837
410	0.0001	-9.49984497070313	0.817300415039063	-3.04227355957031	-0.411807249794141	0.868119119260948	-0.277099230945492	0.23078953424843	-0.194810261931399	-0.953302235771852	-0.881561671069233	-0.456528374386321	-0.120128529008745
411	0.0001	-9.60163330078125	0.718505859375	-2.91773254394531	-0.408783792783991	0.871142131094851	-0.272042640386865	0.233506694953562	-0.188326871553251	-0.953943191632935	-0.882253044295682	-0.453480293819354	-0.12643254703008
412	0.0001	-9.64773742675781	0.825084228515625	-2.82312927246094	-0.404466323696039	0.875135445251568	-0.265602984659719	0.23643675679919	-0.180486601598219	-0.954736742080144	-0.883461743953914	-0.448957168455819	-0.133913434210472
413	0.0001	-9.15436340332031	1.15978820800781	-3.19136352539063	-0.400681544147526	0.8783632622004	-0.260638216300347	0.238785554392655	-0.174529385403328	-0.955259625779363	-0.884553988851414	-0.444991542894254	-0.139809754880139
414	0.0001	-9.77826599121094	1.59628051757813	-3.24165893554688	-0.398054915912048	0.881090583002764	-0.255404910802636	0.237878518335325	-0.169751908917317	-0.956346223882082	-0.88598312310836	-0.441433657487484	-0.142021940573912
415	0.0001	-9.33159484863281	2.14773376464844	-3.27878173828125	-0.394839399955185	0.883429607724603	-0.252297396812935	0.237436515454698	-0.167163380481124	-0.956911858717852	-0.88753915371197	-0.437731118863712	-0.143755758863993
416	0.0001	-9.26513305664063	2.32436645507813	-3.23088134765625	-0.39046805372357	0.885817722688599	-0.250722279010284	0.236834372755816	-0.16652218077028	-0.957172838724997	-0.889631484887246	-0.433125069099324	-0.144770492901764
417	0.0001	-9.83095642089844	2.79199401855469	-2.86803588867188	-0.385274888001578	0.888764134647473	-0.248317485569784	0.234446968851327	-0.165989038709137	-0.957852941648582	-0.892523321528237	-0.427253966620259	-0.14441664909372
418	0.0001	-8.62446533203125	3.10813659667969	-2.74169860839844	-0.381118345318975	0.892834987135037	-0.239988525994275	0.231840128861947	-0.158990167561111	-0.95967300747086	-0.894985453239661	-0.42138795944648	-0.146400908886964
419	0.0001	-9.24357788085937	2.80636413574219	-3.00814453125	-0.378909113715633	0.896243048632834	-0.230599829402705	0.226740865953628	-0.151677018986215	-0.962072066748668	-0.89722709680985	-0.416824279149833	-0.145743120116832
420	0.0001	-8.63344665527344	2.48662902832031	-1.98008239746094	-0.376405343448424	0.89793230160241	-0.228115319876753	0.219359827507678	-0.152843525308535	-0.96359749005851	-0.90011126173339	-0.412742581411536	-0.13943915515545
421	0.0001	-8.53225708007812	3.03808227539063	-1.97888488769531	-0.372157876834123	0.898699839217656	-0.232028260564264	0.212824297387893	-0.160700032519257	-0.963784891970018	-0.903440276471925	-0.40806139064909	-0.131459378934568
422	0.0001	-8.84420837402344	4.25714721679688	-2.15432006835938	-0.367597059198555	0.899368929391795	-0.236659947843378	0.207585476049321	-0.168705099036045	-0.963559473874143	-0.906521192362292	-0.403328796893917	-0.124680429074313
423	0.0001	-9.03580993652344	4.79662536621094	-2.27407104492188	-0.363589756719876	0.90119234998409	-0.235912774428463	0.203319524219561	-0.170370406112517	-0.964175863518781	-0.909100467428937	-0.398530140706082	-0.121285065318357
424	0.0001	-8.30652648925781	3.860771484375	-1.33522338867188	-0.360482472501014	0.904320061558343	-0.228599241649378	0.200315139110999	-0.164304504757102	-0.965856032108029	-0.911002871599479	-0.393966059425985	-0.121920104814031
425	0.0001	-8.41909240722656	4.06434814453125	-1.15320190429688	-0.357249439083558	0.90676046168158	-0.223960495189423	0.198841966787363	-0.160450949991415	-0.966807822108916	-0.912597781346534	-0.389924297496143	-0.122981021720925
426	0.0001	-8.63763793945312	4.933740234375	-0.56282958984375	-0.353791944147172	0.907692840373407	-0.225665610564438	0.197510388457834	-0.163326848719781	-0.96659918629104	-0.914232413945054	-0.386546307733138	-0.121495042162544
427	0.0001	-9.49625244140625	5.4366943359375	-0.928070068359375	-0.351110754538626	0.908513983505809	-0.226547080806007	0.197255730061008	-0.164751054128833	-0.966409471767293	-0.915320389265647	-0.384004468643069	-0.121363722160864
428	0.0001	-8.47956665039063	6.29231506347656	-1.93098449707031	-0.350454553490223	0.910863644792934	-0.217965654479097	0.194615396971063	-0.156822629686769	-0.968262108150434	-0.916136700061603	-0.381751337145869	-0.122308885153847
429	0.0001	-7.61077331542969	4.81758178710938	-1.29450805664063	-0.35314129951076	0.9130366026931	-0.20409650835449	0.190181243764802	-0.143540196299109	-0.971198901650165	-0.916036198575103	-0.381785770019072	-0.122952465249865
430	0.0001	-6.94855041503906	3.89130798339844	0.05748046875	-0.354934592413868	0.913617746336258	-0.198302921530316	0.187116580621029	-0.138398465668202	-0.972539587861277	-0.91597424656193	-0.382293706827807	-0.121830625686483
431	0.0001	-7.69459899902344	4.08530456542969	0.135318603515625	-0.356180481583488	0.913807970762381	-0.195167766575565	0.184427720804845	-0.136007594301983	-0.973390132521857	-0.916035960177156	-0.382696912534354	-0.120088270863514
432	0.0001	-8.40771606445313	4.4595263671875	0.116158447265625	-0.355855125060887	0.91361445019156	-0.196661552849238	0.182177433197179	-0.1385831152163	-0.973450616626562	-0.916612520535034	-0.382234687826888	-0.117124423671127
433	0.0001	-8.04966064453125	4.837939453125	0.0664617919921875	-0.355291314727836	0.912848808994219	-0.201184327413447	0.179242228612863	-0.144701195553346	-0.973105229400874	-0.917409562387956	-0.381796563529935	-0.112209976899883
434	0.0001	-7.92871215820313	5.66422119140625	-0.321531372070313	-0.354687387484263	0.912495366524739	-0.20383587326688	0.177452207100913	-0.148349875397138	-0.972883872137198	-0.917991051892448	-0.381240764531466	-0.109306487020944
435	0.0001	-8.08678344726563	5.59835815429688	-0.365839233398437	-0.355780150395535	0.912154175071074	-0.203458215574942	0.174868063607011	-0.148884055660473	-0.973270105520777	-0.918064074514881	-0.381848528700188	-0.106536642591349
436	0.0001	-8.04067932128906	5.13552062988281	0.156873779296875	-0.35666215370223	0.912103526849144	-0.202136746846881	0.173560867257717	-0.147909077695372	-0.97365267425918	-0.917969897912364	-0.382348088846614	-0.105551908945818
437	0.0001	-8.32568664550781	5.06127502441406	-0.047900390625	-0.357551529414616	0.91255904781161	-0.198476416912532	0.172647138594955	-0.144272669780627	-0.974360488879421	-0.917796202513523	-0.382650468458538	-0.105965794670819
438	0.0001	-8.22629333496094	5.16126708984375	-0.034727783203125	-0.358892507599136	0.913018951180435	-0.193888016067479	0.1721024020986	-0.139433871662087	-0.97516099113183	-0.917375022104426	-0.383346566723506	-0.107090982814635
439	0.0001	-7.93529846191406	4.52359313964844	-0.122744750976563	-0.360294865141565	0.913132028932962	-0.190728885828534	0.172558544877798	-0.135691982270552	-0.975608135747722	-0.916739417033149	-0.384418500704975	-0.108679609741023
440	0.0001	-7.84368896484375	4.72417602539063	-0.0353265380859375	-0.361580581766751	0.912716160051641	-0.190285822040964	0.17342057824958	-0.134692638883763	-0.975593765903672	-0.916070295298783	-0.385755238734506	-0.109581521526602
441	0.0001	-7.90057067871094	5.02594848632812	-0.250878295898438	-0.362092892554032	0.91263973403285	-0.189677233811289	0.175261840225498	-0.133199687309318	-0.975469697459369	-0.915517353479783	-0.386453825398517	-0.111720259184383
442	0.0001	-8.1670166015625	4.368515625	-0.13172607421875	-0.36353787424232	0.911724937480709	-0.191305651686436	0.177219204146021	-0.133922376013994	-0.97501700030544	-0.914567421064858	-0.388358642981669	-0.112889311930804
443	0.0001	-7.77543090820313	4.70262084960938	-0.350271606445313	-0.365214251897063	0.910502787943295	-0.193915505720289	0.181181147205432	-0.134800505515405	-0.974167447418623	-0.91312208499663	-0.390913669318787	-0.115734873876155
444	0.0001	-7.61556335449219	4.67867065429688	-0.802930297851563	-0.367757693098902	0.90926959835147	-0.19489247466316	0.188133563448294	-0.132496460225738	-0.97316517114614	-0.910692067315193	-0.394554794092539	-0.122337537116673
445	0.0001	-8.97054565429688	4.148173828125	-1.42563537597656	-0.3714118641238	0.907876474716499	-0.1944570231296	0.195133549127979	-0.128433435042124	-0.972331091124828	-0.907731306716256	-0.399080392176341	-0.12945545715641
446	0.0001	-8.84121459960938	3.72006408691406	0.204774169921875	-0.377765840865139	0.904354712979857	-0.198583792356212	0.203636407507813	-0.128074928665204	-0.970633311907599	-0.903230415238973	-0.407110999309185	-0.135777211743024
447	0.0001	-8.99748962402344	2.86144958496094	-2.03516784667969	-0.38412630085136	0.89893925028166	-0.210606764604789	0.210982299323632	-0.136607489082185	-0.967897134668129	-0.898851185884718	-0.416229045394128	-0.137185740526955
448	0.0001	-9.21364013671875	3.17040710449219	-2.375859375	-0.390649194542447	0.896799684821993	-0.207710211849372	0.217683360925018	-0.129244125587055	-0.967424369332108	-0.894431194212124	-0.423138607674142	-0.144729255908622
449	0.0001	-10.087822265625	2.615361328125	-3.00754577636719	-0.396721862319768	0.89404426555785	-0.208078387106063	0.220859475524371	-0.127052886926885	-0.966994651481922	-0.890972982771439	-0.429584002433365	-0.147053489671941
450	0.0001	-9.02862487792969	1.58310791015625	-2.16390014648438	-0.403921440525757	0.889347112487538	-0.214264283989833	0.224463310273809	-0.13070769244916	-0.965676820409157	-0.886827881961614	-0.438152042839805	-0.146830157429543
451	0.0001	-9.24357788085937	0.413739624023438	-2.60937377929688	-0.410520275098912	0.884810209952736	-0.220417776270676	0.226697931269134	-0.135102111754202	-0.964549359731191	-0.883222028535865	-0.445935322398833	-0.145122488078314
452	0.0001	-10.4895867919922	0.740659790039063	-3.81825988769531	-0.417110873499519	0.880769465736298	-0.224195600837895	0.232405286536874	-0.13511351278396	-0.963188518127626	-0.878638891694524	-0.453860646993959	-0.148338164718467
453	0.0001	-9.32021850585938	0.17244140625	-2.8117529296875	-0.422560927866383	0.877454377376721	-0.226971535358805	0.23857664827068	-0.133908638979989	-0.96184700410536	-0.874370313506028	-0.460589070679015	-0.152755565628266
454	0.0001	-10.6961572265625	-0.95561279296875	-3.956572265625	-0.428043530515573	0.873571548564855	-0.231627903158851	0.242273526902859	-0.135998973672761	-0.960628865546943	-0.870679202775519	-0.467308280151291	-0.153429779235416
455	0.0001	-8.71846984863281	-1.03285217285156	-2.40160583496094	-0.433234093328646	0.867057150495483	-0.246008370085976	0.251055365936534	-0.146054181060303	-0.956890474103111	-0.865609278839003	-0.476319298338264	-0.154403699497014
456	0.0001	-11.0422375488281	-0.359851684570313	-5.57979675292969	-0.436812819321226	0.864031807724495	-0.250287027464437	0.25249960736059	-0.149279702870776	-0.956012300440513	-0.86338780924877	-0.480795804423411	-0.152960404319077
457	0.0001	-9.11903686523438	-1.7962646484375	-3.88891296386719	-0.441120882282429	0.859626267355936	-0.257788765632005	0.258965024935461	-0.153103598197776	-0.953675208904515	-0.859272647693703	-0.487444323682813	-0.15507594344339
458	0.0001	-9.16573974609375	-2.069296875	-4.17332153320312	-0.44796378385087	0.8557186502872	-0.25898656318169	0.259506691823189	-0.152755563724001	-0.953583774322082	-0.855561058754426	-0.494379742002052	-0.153635755737359
459	0.0001	-8.98731079101563	-2.53572692871094	-4.07931701660156	-0.454759752828563	0.850495443783393	-0.264293524913105	0.262393007938396	-0.15563651336888	-0.952327246849222	-0.851083707159493	-0.50242887636965	-0.152386835381494
460	0.0001	-8.966953125	-3.09616149902344	-3.68773132324219	-0.461847925752403	0.845700385916611	-0.267371185318646	0.263529599232411	-0.15699495741975	-0.951790278198499	-0.846905333438518	-0.510042587050597	-0.150359288333402
461	0.0001	-8.91965148925781	-3.04706359863281	-4.09428588867187	-0.470265868123445	0.841001211448638	-0.267520047136708	0.262825097967316	-0.155915212203546	-0.95216249373833	-0.842480255647913	-0.518080504309366	-0.147714623169068
462	0.0001	-8.76756774902344	-4.41701477050781	-3.47816711425781	-0.480926087792601	0.834480152517414	-0.268985079762832	0.262475674811097	-0.155691965531714	-0.952295401648738	-0.836550427776451	-0.528585742262677	-0.144154413264568
463	0.0001	-8.23527465820313	-4.69304077148437	-2.85127075195313	-0.492387208995616	0.827088816548333	-0.271069965061025	0.260945534962885	-0.156833969467511	-0.952528495008941	-0.830338644289449	-0.539747344191467	-0.138602093194212
464	0.0001	-7.99816772460938	-4.828359375	-3.08478515625	-0.504341892989556	0.818989231360178	-0.273671141868807	0.2591070773424	-0.158792731818977	-0.952705825946575	-0.823712800341716	-0.551399589442658	-0.132120079154069
465	0.0001	-7.90775573730469	-5.55584655761719	-2.77283386230469	-0.516187786268771	0.810780940875699	-0.27601528077203	0.256772749002399	-0.160947352953731	-0.952976235247731	-0.817078897461375	-0.562787895649777	-0.1251073932004
466	0.0001	-6.95693298339844	-6.09951599121094	-2.20102294921875	-0.527175227966625	0.803642070151631	-0.276126243049695	0.255490573982735	-0.160011627896928	-0.953478287924664	-0.810438674807854	-0.573197786126375	-0.12096880736584
467	0.0001	-6.72641235351563	-6.61384643554688	-1.91481811523438	-0.537952955939708	0.796310647988366	-0.276579046740854	0.253498290656703	-0.160094730692815	-0.953995961122753	-0.803955989983196	-0.583317262820795	-0.11573995449021
468	0.0001	-6.26596984863281	-6.9359765625	-1.74776550292969	-0.548487682491554	0.788918753839542	-0.277071221882224	0.251118141947099	-0.160648001370747	-0.95453229303184	-0.79755936515101	-0.593126815694459	-0.109998361642665
469	0.0001	-6.00491271972656	-8.09756103515625	-1.39509887695313	-0.559017041355252	0.780650176812948	-0.279437379239667	0.250034050852849	-0.162614673194293	-0.954483861296789	-0.790558613189772	-0.603441604054465	-0.104284752517509
470	0.0001	-5.17922973632812	-7.72333923339844	-1.12805419921875	-0.568324476735561	0.772944278794451	-0.2820716771003	0.248867089593232	-0.165280318928416	-0.954330963498678	-0.78426555506451	-0.612568002799564	-0.0984275423116356
471	0.0001	-5.01696716308594	-7.970625	-0.7807763671875	-0.57823147977647	0.765072038888497	-0.283395714693275	0.248964929634974	-0.165323753819068	-0.954297920062192	-0.776958698778363	-0.622360692632632	-0.0948807075145595
472	0.0001	-4.2966650390625	-8.48136291503906	-0.793350219726562	-0.587020780165782	0.7581959704431	-0.283805345364392	0.249219391196075	-0.1642970486331	-0.954408809086709	-0.770257293834609	-0.630987599097081	-0.0925113564936088
473	0.0001	-4.36252807617188	-8.79391296386719	-0.673599243164062	-0.595516381580305	0.751027995132358	-0.285161690619498	0.249651022215499	-0.164379163408936	-0.95428185445587	-0.763567028083492	-0.639481384533161	-0.0896044220967623
474	0.0001	-3.5302587890625	-8.71188354492188	-0.595162353515625	-0.604272355939075	0.743645353328579	-0.286088287632774	0.249972570922045	-0.163992547323536	-0.954264197279224	-0.756550483202848	-0.648149699448477	-0.0867947778981331
475	0.0001	-3.6260595703125	-9.168134765625	-0.229921875	-0.61264141295412	0.736064005170713	-0.287889352747942	0.249936788774513	-0.165131079650376	-0.954077212887189	-0.74980137419897	-0.656461352118729	-0.0828033358252285
476	0.0001	-2.86025207519531	-9.31303344726563	-0.0425115966796875	-0.620779101265329	0.728578012117572	-0.289495056418962	0.249184719307685	-0.166746176714154	-0.953993023147844	-0.743330534214599	-0.664356675897834	-0.0780379657232261
477	0.0001	-2.13875244140625	-9.148974609375	0.285606079101562	-0.628534836424064	0.720305396030453	-0.293434994250494	0.247872651053815	-0.172093567105817	-0.953384997270436	-0.737226632902616	-0.671970193245361	-0.0703772060319475
478	0.0001	-2.24173828125	-9.09329040527344	0.641865234375	-0.635297296636175	0.712877135438104	-0.296990798942208	0.246505137884141	-0.177262661728928	-0.952792299377727	-0.731869224577375	-0.678516129894005	-0.0631133867747006
479	0.0001	-1.120869140625	-8.98192199707031	1.20888610839844	-0.641388769379069	0.706188149933295	-0.299864541765433	0.24594687987668	-0.180965300635983	-0.952240354240805	-0.726725931003793	-0.684507017392457	-0.0576156606067529
480	0.0001	-1.28013793945313	-8.73523498535156	1.37593872070313	-0.64696967995279	0.700349158943644	-0.301564733993741	0.244311819258243	-0.184246580744549	-0.952032001801762	-0.722317082860784	-0.689611668296639	-0.051901625760805
481	0.0001	-0.8047265625	-9.13879577636719	1.67411865234375	-0.652207331967133	0.695151702201052	-0.30230730565981	0.243559488137824	-0.185485409332228	-0.951984211351689	-0.717847039324085	-0.694520895187348	-0.0483358488268211
482	0.0001	-0.7999365234375	-9.273515625	1.829794921875	-0.657401485953931	0.690476708784452	-0.301770112654905	0.242660636247811	-0.185152823882007	-0.952278450572272	-0.713399678918746	-0.699256995985532	-0.0458317759193315
483	0.0001	-0.840053100585938	-9.12143188476563	1.7483642578125	-0.662094907331503	0.686168671878805	-0.301335174544503	0.241535567311324	-0.185254378872773	-0.952544689152199	-0.709429984853534	-0.703458150027804	-0.0430781586209809
484	0.0001	-0.359851684570313	-9.31123718261719	2.00463134765625	-0.666819682714859	0.681700286087614	-0.30105851705627	0.240368775824376	-0.185646032952163	-0.952763560416652	-0.705389511087843	-0.707686562255629	-0.0400670344555727
485	0.0001	-0.12214599609375	-9.05736511230469	1.95553344726563	-0.671295458426331	0.67712767377292	-0.301430789580387	0.238862819574817	-0.187347964207732	-0.952809159135231	-0.701645894252186	-0.711617069580327	-0.0359747878514668
486	0.0001	0.027542724609375	-8.9238427734375	2.08785827636719	-0.675854341117505	0.672846025545436	-0.300830742279331	0.237310950149475	-0.187767270488668	-0.953114350470283	-0.69778536996112	-0.715556900631212	-0.0327704047469332
487	0.0001	0.503552856445313	-9.16573974609375	2.31837890625	-0.680100837125928	0.668775103288213	-0.300337664242187	0.236264665385864	-0.187872117701055	-0.953353594046106	-0.694004221334941	-0.719335755132721	-0.0302359414756775
488	0.0001	0.396974487304688	-9.11304931640625	2.24952209472656	-0.683928969574948	0.665240097137675	-0.299494203176633	0.234555817654702	-0.188218164271555	-0.953707235498704	-0.690814543115939	-0.72251611455974	-0.0273080797752874
489	0.0001	0.838855590820313	-9.17232604980469	2.1028271484375	-0.68738883179117	0.661957746698294	-0.29884533711418	0.233116059357351	-0.188610115500863	-0.953982770913842	-0.687861538973121	-0.725422749792745	-0.0246644944132423
490	0.0001	1.05620361328125	-9.09029663085938	2.49141906738281	-0.690397054133402	0.6584962968204	-0.299557231122434	0.232282681723728	-0.190374724929429	-0.953835530832899	-0.685125290304739	-0.728107197589657	-0.0215231364578521
491	0.0001	1.14302307128906	-8.75858642578125	2.49740661621094	-0.693799905002738	0.654784633160232	-0.299831245862421	0.231542298101708	-0.191417267612795	-0.953806895471736	-0.681930975985086	-0.73117474917893	-0.0188050566379628
492	0.0001	1.13643676757813	-8.77475280761719	2.51656677246094	-0.696424055816021	0.6518385210066	-0.300166748679285	0.231432218343581	-0.191924206116266	-0.953731737659606	-0.679288350255864	-0.73366998142119	-0.0171958008855958
493	0.0001	1.14781311035156	-9.25555297851563	2.80337036132813	-0.698542483063889	0.64904342150907	-0.301298915283039	0.231601918538769	-0.193325800022506	-0.953407408390988	-0.677051660277189	-0.73577698526215	-0.0152734172484331
494	0.0001	1.56514526367188	-8.44903015136719	2.7925927734375	-0.699909367764125	0.647304769722457	-0.301866546690056	0.231620981294482	-0.194096282874313	-0.953246218979418	-0.67563199890192	-0.737104584213754	-0.0140795593277868
495	0.0001	1.331630859375	-8.58434875488281	2.93030639648437	-0.700200120987381	0.646548103375497	-0.302812385134435	0.232700720035918	-0.194301666644459	-0.952941360858028	-0.674959380603027	-0.737714316223248	-0.0144021587008353
496	0.0001	1.05141357421875	-8.90767639160156	3.06143371582031	-0.700292170121374	0.64627417507942	-0.303184048215125	0.233215437035413	-0.194283835562685	-0.952819159739892	-0.674686176229422	-0.737958997414129	-0.0146656653601506
497	0.0001	1.17176330566406	-8.59392883300781	2.86504211425781	-0.69957154899223	0.646902362075559	-0.303507795256851	0.234412252459653	-0.193476803444611	-0.952689677925424	-0.675018921021777	-0.737620539620419	-0.0162909727357895
498	0.0001	1.10889404296875	-8.5406396484375	2.74169860839844	-0.698069604982176	0.648447906953519	-0.303667809567674	0.235750357748594	-0.192309272843069	-0.952595880948464	-0.676106940817382	-0.736568025063653	-0.0186265679176474
499	0.0001	0.944835205078125	-8.80049926757813	2.65727416992187	-0.695829265510155	0.650795134332618	-0.303788292053179	0.237737822179928	-0.190424743925871	-0.952480522008672	-0.67771849699174	-0.734985788998506	-0.0222155082206316
500	0.0001	0.67060546875	-8.92563903808594	2.60278747558594	-0.693662376127815	0.653074295127571	-0.303852715946954	0.23946774974982	-0.188758219365925	-0.952378880200293	-0.679328863492839	-0.733392323156871	-0.0254557569146262
501	0.0001	0.46702880859375	-8.69691467285156	2.51656677246094	-0.690924638383817	0.655774447468782	-0.304274576856507	0.241578549187943	-0.187259394909239	-0.952141651011274	-0.681368438252346	-0.731364336746905	-0.0290389099023943
502	0.0001	-0.469423828125	-8.80229553222656	1.93757080078125	-0.686926865149056	0.659854469084032	-0.304505437662976	0.243877697971648	-0.185402039453947	-0.951918984051882	-0.684583925000098	-0.72816080874773	-0.0335661471621757
503	0.0001	-0.913699951171875	-9.17711608886719	1.59807678222656	-0.683043930768633	0.664531573388198	-0.303065630862922	0.246262332192822	-0.181105806463341	-0.952132107749873	-0.687608793125195	-0.724981706552289	-0.0399458731465995
504	0.0001	-0.990340576171875	-9.14598083496094	1.57292907714844	-0.679338385275586	0.668183205545042	-0.303365393739483	0.247996578505167	-0.180033643809177	-0.951885278878984	-0.690649734193021	-0.721885788005515	-0.0434033839091784
505	0.0001	-1.42024658203125	-8.63943420410156	1.13284423828125	-0.675303790603883	0.671607673755673	-0.304808009980906	0.250138970829369	-0.180225010765225	-0.951288305808023	-0.693826553014837	-0.718652960786476	-0.046288619382968
506	0.0001	-2.33813781738281	-9.23399780273438	1.04123474121094	-0.671003700343957	0.676051047025019	-0.304481552710658	0.252741789172479	-0.177508910468971	-0.951111021232544	-0.697047790420866	-0.715154227087063	-0.0517572154283268
507	0.0001	-2.4668701171875	-9.18070861816406	0.834065551757812	-0.666976782576648	0.681053140774255	-0.302173114199834	0.254415639650837	-0.173006575569708	-0.951494302195603	-0.700296118656071	-0.711502174452873	-0.0578792013082052
508	0.0001	-3.10993286132812	-9.26213928222656	0.1580712890625	-0.661622260843831	0.686950886690111	-0.300590191509251	0.256497854958805	-0.169349633729903	-0.951593165148363	-0.70460260740181	-0.706695960672776	-0.0641559413566092
509	0.0001	-2.95844787597656	-8.09396850585938	-0.132324829101563	-0.656411786441162	0.691643845045828	-0.30125132071303	0.259445156541894	-0.168001333004455	-0.951032997774356	-0.708386742795258	-0.702427465094404	-0.0691655905272011
510	0.0001	-3.97633117675781	-8.42927124023437	-0.265248413085937	-0.650824669458502	0.697712693172758	-0.299373090657543	0.261962124174299	-0.163732981471091	-0.951087459846189	-0.712603041757696	-0.697415592429797	-0.0762128356215283
511	0.0001	-4.77626770019531	-8.56818237304688	-0.67300048828125	-0.645635861284618	0.704306229286934	-0.295139068933428	0.263253497836151	-0.157518974870354	-0.951780105083535	-0.71683466050429	-0.692199760144002	-0.083711179398484
512	0.0001	-5.08821899414063	-8.3490380859375	-1.87110900878906	-0.640753697854959	0.709546049325054	-0.293221933989263	0.263663381529854	-0.155327279279205	-0.952026815563492	-0.721052231066126	-0.687326589183721	-0.0875547821402914
513	0.0001	-5.86899536132813	-7.85925659179688	-1.48131958007813	-0.636482759850467	0.713009086061546	-0.294121980829063	0.263652560833453	-0.157235627144525	-0.951716493879575	-0.724828961603422	-0.683297154062672	-0.0879089055258798
514	0.0001	-5.28401184082031	-7.49461486816406	-1.77051818847656	-0.632113213358044	0.717105629006972	-0.293585425974592	0.264130661484228	-0.156786450765507	-0.951658028138396	-0.728469545802754	-0.67910052694934	-0.0903027969392871
515	0.0001	-5.85522399902344	-6.69228332519531	-2.30820007324219	-0.626780132708523	0.72268697637624	-0.291324903532216	0.265454968541506	-0.153468900233017	-0.951830319089436	-0.732584687881554	-0.673921976817374	-0.0956495909246291
516	0.0001	-6.41446105957031	-7.06590637207031	-2.1794677734375	-0.620921751987537	0.728309525127914	-0.289864474395672	0.267007213883192	-0.151161533366473	-0.951765379998995	-0.736996150358374	-0.668367732942165	-0.100604413017963
