// Start Time: Unknown
// Update Rate: 100.0Hz
// Filter Profile: human (46.1)
// Option Flags: AHS Disabled ICC Disabled 
// Firmware Version: 4.0.2
PacketCounter	SampleTimeFine	Acc_X	Acc_Y	Acc_Z	Mat[1][1]	Mat[2][1]	Mat[3][1]	Mat[1][2]	Mat[2][2]	Mat[3][2]	Mat[1][3]	Mat[2][3]	Mat[3][3]
1	0.0001	-9.426796875	0.731079711914063	-2.58542358398438	0.139807043227421	0.965912467518255	-0.217869446588554	0.238152064721298	-0.246373078474373	-0.939459365950462	-0.961112680559876	0.0794569776410905	-0.264478740111855
2	0.0001	-9.37650146484375	0.719703369140625	-2.44351867675781	0.141966791195042	0.965638896592287	-0.217685441832508	0.237844665402111	-0.246746765265245	-0.939439167254004	-0.96087217950024	0.0815938430224294	-0.264701906761719
3	0.0001	-9.38967407226563	0.637673950195312	-2.42974731445313	0.14281422928851	0.965588357749819	-0.217355053520125	0.237758700509759	-0.246645169654525	-0.93948760535624	-0.960767868032981	0.0824941432108853	-0.264801472977894
4	0.0001	-9.32740356445313	0.625698852539063	-2.48243774414063	0.143090616072398	0.965514636816342	-0.217500716517048	0.237722548577437	-0.24685791447426	-0.939440876244624	-0.96073568971381	0.082720349097585	-0.264847651217268
5	0.0001	-9.474697265625	0.70892578125	-2.54830078125	0.143387157457299	0.965391812848018	-0.217850340285098	0.238071107350538	-0.247307719512486	-0.939234283719681	-0.960605158700079	0.082810262380642	-0.265292648830014
6	0.0001	-9.34835998535156	0.614322509765625	-2.50399291992188	0.143689309717814	0.9652944133429	-0.218082731645134	0.238130374586519	-0.247620140498171	-0.939136939279331	-0.960545317500482	0.0830118159580407	-0.26544628729603
7	0.0001	-9.42559936523438	0.674197998046875	-2.46567260742188	0.143898953051234	0.96528188409503	-0.217999943919046	0.238183665315138	-0.247600583923315	-0.939128581408254	-0.960500719878859	0.0832155939640052	-0.265543842017495
8	0.0001	-9.36572387695313	0.642463989257813	-2.45309875488281	0.144184664652898	0.965211699147069	-0.218121888650728	0.238098492875453	-0.247788687950287	-0.939100566400805	-0.960478989967698	0.0834694072909609	-0.265542779749566
9	0.0001	-9.36153259277344	0.693956909179688	-2.50758544921875	0.144332885758312	0.965158994300523	-0.218257036105326	0.23827406756352	-0.247975327104173	-0.939006765616901	-0.9604131854652	0.0835245644608918	-0.265763353975308
10	0.0001	-9.41362426757813	0.650247802734375	-2.48243774414063	0.143861314229088	0.965190076862243	-0.218430853578284	0.238164626324106	-0.248008043647074	-0.939025889448342	-0.960511079080392	0.0830669959310496	-0.265552897086084
11	0.0001	-9.38069274902344	0.561033325195313	-2.48004272460938	0.143939088772378	0.965143382284367	-0.218585887824602	0.23840854872588	-0.248200891504873	-0.93891303183554	-0.960438911445073	0.0830335419506972	-0.265824243238506
12	0.0001	-9.436376953125	0.64905029296875	-2.47345642089844	0.144080192624084	0.965074148982247	-0.218798503330346	0.238634846848113	-0.248465301162504	-0.938785600650119	-0.96036155064808	0.0830474628415522	-0.266099250191346
13	0.0001	-9.39985290527344	0.685574340820313	-2.54291198730469	0.144144252494136	0.965037193804091	-0.218919275185244	0.238541617250271	-0.248591984778339	-0.938775757006747	-0.960375099277638	0.0830977718034092	-0.266034638738598
14	0.0001	-9.30584838867188	0.65384033203125	-2.52135681152344	0.144311102039258	0.964971531961275	-0.219098718235696	0.238944399226414	-0.248846388537156	-0.938605907178483	-0.960249904923996	0.083098841245379	-0.266485839543365
15	0.0001	-9.51002380371094	0.66821044921875	-2.50339416503906	0.144476644209759	0.964891653648565	-0.219341277458724	0.238759792263171	-0.249111015318074	-0.938582688763034	-0.960270930975386	0.0832333993450724	-0.26636805431044
16	0.0001	-9.32381103515625	0.695753173828125	-2.51596801757813	0.144561174819627	0.964863210332605	-0.219410692723553	0.238862492171662	-0.24921025474104	-0.938530211962006	-0.960232667934346	0.0832660451718825	-0.266495758227259
17	0.0001	-9.38787780761719	0.669407958984375	-2.49321533203125	0.144535605195728	0.964831723049964	-0.219565946875064	0.238883608216746	-0.249356197852596	-0.938486072522041	-0.960231264100505	0.0831939468286937	-0.266523332290086
18	0.0001	-9.36931640625	0.721499633789063	-2.52375183105469	0.144618647293683	0.964732971754626	-0.219944856871974	0.238524773781316	-0.249716086710455	-0.938481650502869	-0.96030796057698	0.0832596495759164	-0.266226316514687
19	0.0001	-9.33219360351563	0.671204223632813	-2.45549377441406	0.144805429482197	0.96470373969818	-0.219950181188431	0.238636984016333	-0.249781391971684	-0.938435744249054	-0.960251934365177	0.0834023431147762	-0.266383692651972
20	0.0001	-9.44775329589844	0.664019165039063	-2.56985595703125	0.145203429395379	0.964645032041598	-0.219945280125048	0.238892304261662	-0.249906320076592	-0.938337518247208	-0.960128340929677	0.0837065907992942	-0.266733529201682
21	0.0001	-9.38787780761719	0.669407958984375	-2.52794311523437	0.145443559014493	0.964586391262215	-0.220043779582461	0.23898139897936	-0.250074820313347	-0.938269937271314	-0.960069821462515	0.0838789487117219	-0.266889977106579
22	0.0001	-9.31961975097656	0.681383056640625	-2.51237548828125	0.145431308900189	0.964580498574582	-0.220077704825338	0.239301742660126	-0.250132475355961	-0.938172916221805	-0.959991880357019	0.0837747368955006	-0.267202887534332
23	0.0001	-9.39206909179688	0.6945556640625	-2.53572692871094	0.145614211425586	0.964498533828377	-0.220315863418448	0.239194418891147	-0.250404257534614	-0.938127783289603	-0.959990901728882	0.0839064124572714	-0.267165084818954
24	0.0001	-9.35554504394531	0.671802978515625	-2.5626708984375	0.14560154907455	0.964522815077454	-0.220217910493575	0.239331061123142	-0.250317497968181	-0.938116087375449	-0.959958765827347	0.0838861693368722	-0.2672868842746
25	0.0001	-9.42380310058594	0.70174072265625	-2.52075805664062	0.145779223584471	0.964485140288075	-0.220265367533346	0.239170403684172	-0.250397709867745	-0.938135653780699	-0.959971841239449	0.0840797303544679	-0.267179084081934
26	0.0001	-9.34177368164062	0.689765625	-2.52255432128906	0.145840797929661	0.96441628694225	-0.220525933032293	0.239313518945681	-0.25068035664429	-0.938023666248633	-0.959926820809313	0.0840272829098695	-0.267357278594973
27	0.0001	-9.45134582519531	0.718505859375	-2.58482482910156	0.146295261779365	0.964201476265604	-0.221163309678929	0.239148478320462	-0.251408957619229	-0.937870748741968	-0.959898797633331	0.0843151777323827	-0.267367255111845
28	0.0001	-9.42739562988281	0.73048095703125	-2.57284973144531	0.146341285706263	0.964153471143492	-0.221342070514834	0.238915579504381	-0.251574843912862	-0.937885624039683	-0.959949776794559	0.0843693190216366	-0.267167071398968
29	0.0001	-9.33458862304687	0.714314575195312	-2.53632568359375	0.1466859326886	0.964038518149491	-0.221614468560627	0.238777211351904	-0.251920953004766	-0.937827956917567	-0.959931601985414	0.0846496837637561	-0.267143688954863
30	0.0001	-9.34656372070313	0.740659790039063	-2.50758544921875	0.147200438290354	0.963928156514209	-0.221753331533591	0.238753030737363	-0.2521932361343	-0.937760930067911	-0.95985885487443	0.085094539937814	-0.267263723673678
31	0.0001	-9.4220068359375	0.728684692382813	-2.55069580078125	0.147401006709855	0.963880239766639	-0.221828371964291	0.238560914988124	-0.252303507551725	-0.937780160761106	-0.959875842523891	0.0853101603825897	-0.267133942947254
32	0.0001	-9.36153259277344	0.67779052734375	-2.53752319335937	0.147778432797037	0.963667274043173	-0.222501505024693	0.238308569571603	-0.253038161536108	-0.937646369627251	-0.959880492805635	0.0855398956313826	-0.267043752569843
33	0.0001	-9.39266784667969	0.781973876953125	-2.54171447753906	0.148093937568036	0.963500721447283	-0.223012433344333	0.238305859199807	-0.25362048060337	-0.937489716898035	-0.959832539105982	0.0856913740646121	-0.267167522884579
34	0.0001	-9.41841430664063	0.768202514648438	-2.60518249511719	0.148298457300567	0.963429465064563	-0.223184303676767	0.238203552014578	-0.253833960458867	-0.937457939496704	-0.959826356884364	0.0858602723218228	-0.267135505440426
35	0.0001	-9.39206909179688	0.717308349609375	-2.47944396972656	0.148261740806345	0.963383139090981	-0.22340855741954	0.238072366581607	-0.254030500137295	-0.937438026362399	-0.959864576116499	0.0857987897071008	-0.267017908016469
36	0.0001	-9.3357861328125	0.75443115234375	-2.44950622558594	0.148516029421888	0.963340938007186	-0.223421633160694	0.238162311150113	-0.254120129081802	-0.937390886206542	-0.95980294985606	0.0860069599211769	-0.267172416788716
37	0.0001	-9.41422302246094	0.765208740234375	-2.5051904296875	0.148784390548081	0.963281694092117	-0.223498507727136	0.238278466702276	-0.25427807016716	-0.937318534617809	-0.959732555160681	0.0862034851910621	-0.267361892770203
38	0.0001	-9.40224792480469	0.714314575195312	-2.5435107421875	0.148733683070446	0.963240801747055	-0.22370840254669	0.23826158583968	-0.254467046681066	-0.937271539558616	-0.959744605732932	0.086102729359224	-0.267351102042672
39	0.0001	-9.36752014160156	0.7137158203125	-2.51776428222656	0.14918445180893	0.963081051455875	-0.224095710947611	0.238468080514997	-0.254984728476759	-0.937078311999123	-0.959623350025395	0.0863578402363065	-0.267703846658502
40	0.0001	-9.42919189453125	0.790955200195313	-2.54291198730469	0.149482793994541	0.962958981383899	-0.224421243360937	0.238351736627554	-0.255371977938802	-0.937002455989446	-0.959605827382377	0.086574552009855	-0.267696662284157
41	0.0001	-9.36153259277344	0.67060546875	-2.49321533203125	0.149647880004508	0.962840796801775	-0.224817953073769	0.238531448748803	-0.255819030551943	-0.936834762146058	-0.959535439662316	0.0865691840182582	-0.267950585762486
42	0.0001	-9.40584045410156	0.746048583984375	-2.54171447753906	0.150049975028847	0.962737500537885	-0.224992244426132	0.23863565456479	-0.256107334215102	-0.936729447456238	-0.959446730863302	0.0868650586789629	-0.268172392718609
43	0.0001	-9.40344543457031	0.789757690429688	-2.60997253417969	0.150422986961916	0.962647061643364	-0.225130095062506	0.238774919204018	-0.256355582003546	-0.936626047862613	-0.959353669379844	0.087134667526886	-0.268417746735213
44	0.0001	-9.35674255371094	0.725092163085937	-2.53153564453125	0.150601993877068	0.962551415459593	-0.22541919181158	0.238933757969512	-0.256700040654947	-0.936491189723809	-0.959286035936529	0.0871771858027215	-0.268645564885592
45	0.0001	-9.40344543457031	0.756826171875	-2.54410949707031	0.150829148283334	0.962493432714854	-0.225514877577734	0.23911679090355	-0.256871702494437	-0.936397398952815	-0.959204737444573	0.0873116283113877	-0.268892081001844
46	0.0001	-9.39147033691406	0.765807495117187	-2.59440490722656	0.150917258687562	0.962357854742395	-0.226033936491512	0.239154742385119	-0.257404169743346	-0.936241476646622	-0.959181416742912	0.0872379092731809	-0.268999176505626
47	0.0001	-9.42140808105469	0.74485107421875	-2.64649658203125	0.151170446488449	0.96225839242268	-0.226288051652318	0.239192220213349	-0.257723896955151	-0.936143939107475	-0.959132200428018	0.0873909557698614	-0.269124957875962
48	0.0001	-9.37710021972656	0.794547729492188	-2.67044677734375	0.15138828008633	0.962138039185763	-0.226653881952808	0.239481080153433	-0.258165613750233	-0.93594835761676	-0.959025756119745	0.0874122956381992	-0.269497105123992
49	0.0001	-9.378896484375	0.737666015625	-2.62075012207031	0.151699047428265	0.961925330440858	-0.227347878075876	0.239425639980028	-0.258920635602149	-0.935753956646475	-0.958990491052707	0.0875200726440826	-0.269587601634169
50	0.0001	-9.34416870117188	0.656834106445312	-2.62733642578125	0.151868700591034	0.961696170589036	-0.228202483017109	0.239616249109976	-0.259815760163748	-0.935457013407351	-0.958916029140851	0.0873856180668012	-0.269895911069113
51	0.0001	-9.44236450195313	0.725092163085937	-2.7734326171875	0.152783724374544	0.961057056410922	-0.230274766070923	0.240094767746689	-0.262125938537099	-0.934689517886399	-0.958650945895798	0.0875175791988088	-0.270793347895167
52	0.0001	-9.37710021972656	0.75922119140625	-2.94228149414063	0.153897026765643	0.960368501567022	-0.232396313117503	0.240888029378349	-0.264568140834494	-0.933796903056331	-0.958273793054423	0.0877270770816654	-0.27205752607086
53	0.0001	-9.39087158203125	0.56761962890625	-2.89557861328125	0.155080026100982	0.95978099962614	-0.234031233516312	0.241318720150656	-0.266524424826172	-0.933129147693891	-0.957974666058225	0.0882335748325201	-0.272945737213289
54	0.0001	-9.33937866210938	0.596958618164062	-2.84887573242188	0.156341205145924	0.958838247907837	-0.237037216323827	0.241510272640771	-0.269814385738569	-0.932133566318421	-0.957721366464433	0.0884839623748132	-0.273752392902696
55	0.0001	-9.11724060058594	0.89813232421875	-3.11651916503906	0.157089125570704	0.957631821305598	-0.241379993890037	0.242133294961473	-0.274301152452116	-0.930661240857564	-0.957441629603879	0.0877506272704861	-0.274964276434421
56	0.0001	-8.90348510742188	1.31965576171875	-2.62853393554688	0.156335321960513	0.95609334898656	-0.247880566263608	0.241803214903487	-0.280377672733868	-0.928934640270605	-0.957648407490892	0.0852869782323409	-0.275019379270181
57	0.0001	-9.47050598144531	1.30708190917969	-2.308798828125	0.155283202219541	0.955025740355232	-0.252612276755083	0.241721051865023	-0.284673620698366	-0.927648566410659	-0.957840310382536	0.0829865346753564	-0.275054857926312
58	0.0001	-9.47349975585938	1.04243225097656	-2.88120849609375	0.155950695018322	0.95311660387625	-0.259322425059435	0.243810376919129	-0.291554538151961	-0.924960783703584	-0.957202110752925	0.081022778885942	-0.277847851299493
59	0.0001	-9.877060546875	1.13284423828125	-3.10813659667969	0.157433606710156	0.950287011856419	-0.268643359447486	0.243755952304086	-0.301012823205307	-0.921940516509769	-0.956973194606077	0.0796610027740662	-0.279027649960484
60	0.0001	-9.40464294433594	1.41006774902344	-3.00694702148437	0.159416896173528	0.946461356485622	-0.280708307489813	0.240908335166726	-0.313044914883286	-0.918676251632158	-0.957365879516079	0.0788275455986893	-0.277915078384192
61	0.0001	-8.96874938964844	1.44479553222656	-3.12909301757813	0.162611649124823	0.941899663187421	-0.293908958788822	0.237441070079119	-0.326475288871298	-0.914896509992297	-0.957694726835534	0.0789867725877345	-0.276734349056248
62	0.0001	-8.87534362792969	1.25079895019531	-2.99616943359375	0.165269468048409	0.93757223376166	-0.306013577166387	0.235806605509937	-0.338845897135367	-0.910812111685176	-0.957643591180392	0.0783694103186978	-0.277086607033654
63	0.0001	-8.90887390136719	0.238903198242188	-2.88959106445313	0.166166680347007	0.933925477443286	-0.31649934743185	0.235673223318835	-0.349272193944041	-0.906899700269014	-0.95752115702629	0.0761060912138259	-0.278138628613838
64	0.0001	-9.48846862792969	-0.3400927734375	-2.63092895507812	0.167807799272613	0.929387845181411	-0.328753366115598	0.235856275650882	-0.361646956653212	-0.901988523197255	-0.957189824297865	0.0738221645071699	-0.2798891357093
65	0.0001	-9.82556762695313	-0.267044677734375	-2.988984375	0.169913750072153	0.9242320470466	-0.341942159945903	0.236189453323654	-0.375067987161577	-0.8964031164299	-0.95673604493355	0.071548083263037	-0.282023070166776
66	0.0001	-9.71000793457031	0.333506469726563	-3.08658142089844	0.173053320018154	0.919288038308637	-0.353499718604347	0.23797285355349	-0.38730757659408	-0.890708573038584	-0.955730856152664	0.0700167389663269	-0.285790459711687
67	0.0001	-9.8722705078125	-0.010777587890625	-2.60638000488281	0.174698023595476	0.914801590834507	-0.36416843624687	0.23995789788618	-0.398260486349074	-0.88532976469508	-0.954934975688858	0.0672802676841817	-0.289089186560938
68	0.0001	-9.48128356933594	0.005987548828125	-2.20042419433594	0.174683229811571	0.911559072387294	-0.372217445548988	0.240340310395045	-0.406069947837937	-0.881670988896713	-0.954841507487924	0.0645542795739452	-0.290018000418729
69	0.0001	-9.04179748535156	-0.0784368896484375	-2.48243774414063	0.175111439039524	0.908532219868145	-0.379348374688713	0.240826488951979	-0.41312351031214	-0.87825484197153	-0.954640553368947	0.0624353320551415	-0.291141277002411
70	0.0001	-8.89210876464844	-0.032332763671875	-2.46507385253906	0.176505077940768	0.905175567279555	-0.386656371809984	0.241326460745554	-0.420630369834505	-0.874546528960531	-0.954257563137515	0.061051489523386	-0.292686212216817
71	0.0001	-9.01185974121094	-0.17004638671875	-2.65727416992187	0.178840945384239	0.901693477010686	-0.393655674124547	0.24311322202676	-0.428198916800045	-0.870368685631001	-0.95336869968016	0.0599546592655507	-0.295793105569607
72	0.0001	-9.02143981933594	0.245489501953125	-2.59200988769531	0.180532169395123	0.899065498226741	-0.398860082875929	0.245816785483073	-0.433896947470904	-0.866779987626734	-0.952356153856455	0.058435168124459	-0.299337747933679
73	0.0001	-9.56331298828125	-0.009580078125	-3.13088928222656	0.182754743240632	0.896283874580026	-0.404074151599514	0.247711219073133	-0.439713955605734	-0.863302258302885	-0.951440936563249	0.0576788818665437	-0.302379382263858
74	0.0001	-9.225615234375	0.118553466796875	-3.18956726074219	0.185020096904854	0.893650825212973	-0.408846873948536	0.247595024490611	-0.444998555161589	-0.860623605155932	-0.951033263134793	0.0580042110563576	-0.303597173753178
75	0.0001	-8.90228759765625	0.4454736328125	-3.12310546875	0.187613340194568	0.892060365370346	-0.411132021516644	0.24640747418384	-0.447923871941223	-0.859446078361827	-0.950833629636319	0.0599375465005725	-0.303846835218197
76	0.0001	-8.93641662597656	0.388591918945313	-3.09316772460937	0.190789308999258	0.890698166427847	-0.412621152988619	0.24645204875834	-0.450342153158432	-0.858168592265788	-0.950189890092713	0.062038064208182	-0.305434856155775
77	0.0001	-9.51421508789062	0.168250122070313	-3.56498657226563	0.194091136530819	0.889209350989782	-0.414288982272647	0.248430381409308	-0.453107622951404	-0.85614007476356	-0.949005256209364	0.0632472302607718	-0.30885079172853
78	0.0001	-9.44715454101563	0.650846557617188	-4.14039001464844	0.196093399489128	0.888309721953707	-0.41527486868257	0.24899627187202	-0.454723843243467	-0.855118169015093	-0.948445167245125	0.0642811346229855	-0.310354153284517
79	0.0001	-9.03820495605469	0.6370751953125	-3.48834594726563	0.197349279900656	0.887562110749896	-0.41627726491352	0.247396753889347	-0.455974639317242	-0.854916355244491	-0.948603240500319	0.0657314830252532	-0.30956625179692
80	0.0001	-9.04898254394531	0.598156127929688	-2.85665954589844	0.199185314979731	0.887359431758213	-0.415834641613907	0.24751068078471	-0.456134410830661	-0.854798141173491	-0.948189682075224	0.0673397217540067	-0.310486213349608
81	0.0001	-9.34476745605469	0.869990844726563	-3.56558532714844	0.202236398932527	0.886905318373402	-0.415330465036913	0.248113428183348	-0.456658120231153	-0.854343659180576	-0.947385964484334	0.0697303195742253	-0.312406012794513
82	0.0001	-9.73096435546875	0.613723754882812	-3.47936462402344	0.204050658664039	0.886241518049394	-0.415859712384209	0.247325888463498	-0.45768598441433	-0.854021922766873	-0.947202847121203	0.0714108630125108	-0.312581597425848
83	0.0001	-9.12322814941406	0.673599243164062	-3.29315185546875	0.205311423549495	0.885428790677413	-0.416968914908071	0.246461679880718	-0.459090340562267	-0.853517837864444	-0.94715566815094	0.072470103090553	-0.31248075852377
84	0.0001	-9.25794799804688	0.88855224609375	-2.99976196289063	0.206920697806038	0.884172188178496	-0.418835727309781	0.245924318187457	-0.461360876057674	-0.852447870410461	-0.94694511696481	0.0733872175173979	-0.312904556952367
85	0.0001	-9.46391967773438	1.05261108398437	-3.2332763671875	0.208410401230689	0.88241800943166	-0.42178615587704	0.245176360952165	-0.464622352581304	-0.850890487378998	-0.946812366147125	0.073922433080098	-0.313180167313324
86	0.0001	-9.36931640625	1.13104797363281	-3.15603698730469	0.208815331761724	0.8804392249904	-0.425702863884595	0.243365518131209	-0.468387664861036	-0.849344582599285	-0.94719025639307	0.0737547727562786	-0.312075073803885
87	0.0001	-8.88731872558594	1.12506042480469	-3.20812866210938	0.209125470005633	0.877992558911105	-0.430575898410086	0.242455589629689	-0.473116756631352	-0.846980413971864	-0.947355173550154	0.0727296438280809	-0.311814967659344
88	0.0001	-8.9046826171875	1.37533996582031	-3.15483947753906	0.209558530797568	0.875344178826148	-0.435726738639186	0.242081564218183	-0.478194186798271	-0.844231506151019	-0.947355127940754	0.0714345036205639	-0.312114359260898
89	0.0001	-9.27471313476562	1.40587646484375	-3.17519714355469	0.209835704725843	0.872490118398574	-0.441282188989144	0.241762259097724	-0.483615678335765	-0.841229389491239	-0.947375314803048	0.0698345828703811	-0.312415018744532
90	0.0001	-9.77587097167969	1.70226013183594	-3.89011047363281	0.212135640180843	0.868884330787656	-0.447256626420169	0.242461558611671	-0.490159521367142	-0.837231172501797	-0.946684140968181	0.0691640320167946	-0.314651352951988
91	0.0001	-9.51062255859375	1.00650695800781	-3.67934875488281	0.212299686730564	0.866892483630656	-0.451028008929353	0.241379471800958	-0.493767578530749	-0.83542176712423	-0.946923858400027	0.0684908768855632	-0.314076752046775
92	0.0001	-8.43885131835938	0.496966552734375	-3.20872741699219	0.211783763349553	0.865174397340998	-0.454555716900735	0.241141600300208	-0.496985009583621	-0.833580607292314	-0.947099976869473	0.0669265450685207	-0.313882894371509
93	0.0001	-8.76517272949219	0.881965942382813	-3.06382873535156	0.214120708822111	0.862355877081589	-0.458796973961643	0.242487510718264	-0.501914177273235	-0.830230067991874	-0.946230484184047	0.0665169145028179	-0.316580749392391
94	0.0001	-9.57888061523438	0.92208251953125	-3.31829956054688	0.214898993708875	0.86050263444872	-0.461902195935164	0.243339990484279	-0.505213589747475	-0.827976375125269	-0.945835118577241	0.0655320138656122	-0.317964594923229
95	0.0001	-9.41961181640625	0.684376831054687	-3.16801208496094	0.214167158301394	0.859916161442865	-0.463332087810109	0.2436724709227	-0.506375352404996	-0.827168501208274	-0.945915511670853	0.0642510526457371	-0.317986866103591
96	0.0001	-9.20406005859375	0.358055419921875	-2.90336242675781	0.213810556617789	0.859431062352707	-0.464395623302039	0.244608156765539	-0.507345692404055	-0.826297281880327	-0.945754669839149	0.0630761243447026	-0.318699712919693
97	0.0001	-9.37111267089844	0.25147705078125	-2.83330810546875	0.213066527676026	0.859093017514182	-0.465362054794392	0.245625112697089	-0.508100424129512	-0.82553150334312	-0.945659007674872	0.0615885237506667	-0.319274012324195
98	0.0001	-9.359736328125	0.362246704101563	-2.76265502929688	0.212414935446815	0.858825436486859	-0.466153155993052	0.246346379386081	-0.508695515962705	-0.824949897510635	-0.945617976014889	0.0603965370082943	-0.31962306198851
99	0.0001	-9.23639282226562	0.299976196289063	-2.77942016601563	0.211657265773773	0.858520729083261	-0.467058197208353	0.247976030929485	-0.50942071013799	-0.82401360921223	-0.945361883053061	0.0585892295294305	-0.320715157505095
100	0.0001	-9.51002380371094	0.250878295898438	-2.77223510742188	0.2116158043907	0.858108597194419	-0.467833716990454	0.249713835973826	-0.510257804160996	-0.82297021417305	-0.944913621160852	0.0573289517942376	-0.322260205161698
101	0.0001	-9.44236450195313	0.324525146484375	-3.0129345703125	0.21166676936906	0.85806668481665	-0.467887532589435	0.25125107825792	-0.510418730119859	-0.822402344121819	-0.944494613229264	0.0565180002352744	-0.323628863407311
102	0.0001	-9.46751220703125	0.293389892578125	-2.88001098632813	0.211141592213807	0.858299228930768	-0.46769825919525	0.252228895045753	-0.510122828992896	-0.822286619035166	-0.944351530173705	0.0556518908675523	-0.324196012470001
103	0.0001	-9.36392761230469	0.235909423828125	-2.66445922851562	0.210254174316708	0.858818756718698	-0.467144009156223	0.252099172909847	-0.509292631957309	-0.822840824249847	-0.944584135585905	0.0552390997586578	-0.323588400066014
104	0.0001	-9.26333679199219	0.341889038085938	-2.70337829589844	0.209632768875485	0.859361657268607	-0.466424317794592	0.252378959988066	-0.508415519294334	-0.823297346221895	-0.944647533617137	0.0548744180581922	-0.32346535436401
105	0.0001	-9.31482971191406	0.37601806640625	-2.82971557617188	0.209244718762486	0.859724660444763	-0.465929346460539	0.252727588398448	-0.507834236703611	-0.823549120632137	-0.944640362112647	0.0545701040387265	-0.323537772157888
106	0.0001	-9.43937072753906	0.34248779296875	-2.80636413574219	0.209130531547566	0.860075788994042	-0.465332201723573	0.253198965800759	-0.507251983050355	-0.823763139141894	-0.944539413943144	0.054452390927837	-0.323852177127441
107	0.0001	-9.35434753417969	0.420924682617188	-2.85426452636719	0.208722690307196	0.860693720056236	-0.464371789417364	0.253855541652278	-0.506235972818281	-0.824185964329142	-0.94445338822165	0.0541429596576267	-0.324154804678502
108	0.0001	-9.25555297851563	0.24668701171875	-2.63033020019531	0.207947324687722	0.861118764525708	-0.463931442712108	0.254114595456554	-0.505574367274538	-0.824512177915464	-0.944554753590903	0.0535633506856055	-0.323955683592925
109	0.0001	-9.14298706054688	0.196990356445313	-2.56446716308594	0.208022810196955	0.861229736714221	-0.463691547299404	0.255170394339626	-0.505429190406812	-0.824275077469454	-0.944253451299132	0.0531476630141681	-0.324901132078377
110	0.0001	-9.45014831542969	0.31374755859375	-2.835703125	0.207812948313097	0.861496016402287	-0.463290829000973	0.255909032404494	-0.505017976946633	-0.82429813180337	-0.94409975407645	0.0527395172875214	-0.325413886718231
111	0.0001	-9.28010192871094	0.156275024414063	-2.58242980957031	0.207084818941698	0.861949827684414	-0.462772484401022	0.256257014373921	-0.504301304030921	-0.824628726965583	-0.944165356464666	0.0521793954307825	-0.325313833619828
112	0.0001	-9.22860900878906	0.245489501953125	-2.73870483398438	0.207645743827751	0.861891793370169	-0.462629205294449	0.257916414977998	-0.504441048362938	-0.824025698392591	-0.943590148292741	0.0517857629822474	-0.327041078149564
113	0.0001	-9.73515563964844	0.347876586914063	-2.97162048339844	0.208017441739093	0.861614808308721	-0.462978040554247	0.259052794662246	-0.504959972895069	-0.82335112518991	-0.943196900710559	0.0513356394421804	-0.328244205757024
114	0.0001	-9.45853088378906	0.40236328125	-2.83749938964844	0.208334047840072	0.861744227518023	-0.462594650693171	0.259720463208289	-0.504735416842171	-0.823278470492234	-0.942943373433125	0.0513716393015234	-0.328966182417025
115	0.0001	-9.21184387207031	0.384400634765625	-2.52075805664062	0.208324642678576	0.86227952111587	-0.461600336565116	0.260741065780864	-0.503838028107516	-0.823505517922126	-0.942663746978902	0.0511983290441684	-0.329793558510142
116	0.0001	-9.34476745605469	0.254470825195312	-2.57165222167969	0.208401074262694	0.862559440653964	-0.461042518196398	0.261721539508692	-0.50338408992612	-0.823472096531785	-0.942375099418143	0.0509477119012511	-0.330656169833063
117	0.0001	-9.35554504394531	0.276026000976562	-2.61715759277344	0.208435736487047	0.86246083197431	-0.461211293297643	0.262466668430435	-0.503596928718072	-0.823104720766898	-0.942160173069384	0.0505118470846891	-0.331334817950004
118	0.0001	-9.29626831054687	0.415535888671875	-2.53452941894531	0.208733934661636	0.86235410579082	-0.461275991946672	0.263265722491248	-0.503801628587219	-0.822724181238176	-0.941871171595051	0.0502922982034102	-0.332188772928265
119	0.0001	-9.3453662109375	0.432899780273438	-2.596201171875	0.208887932898902	0.862468390070962	-0.460992524470436	0.264250763101097	-0.503635579459516	-0.822510022615509	-0.941561132210602	0.0499947920375693	-0.333111325354465
120	0.0001	-9.32919982910156	0.402962036132813	-2.69439697265625	0.209238817512478	0.862472010681088	-0.460826592155555	0.265412727376202	-0.503657502602703	-0.822122377884664	-0.941156310818084	0.0497106715276472	-0.334295748916382
121	0.0001	-9.55433166503906	0.47660888671875	-2.70218078613281	0.209383121018413	0.862527036872584	-0.460658028581277	0.26650602426706	-0.503603312236082	-0.821801827044825	-0.940815203779124	0.0493032916613819	-0.335314684690961
122	0.0001	-9.33518737792969	0.5125341796875	-2.51896179199219	0.20952402251688	0.862541963708225	-0.460566004857833	0.267362754379327	-0.503608313924051	-0.821520434144686	-0.940540717650781	0.0489900703095353	-0.336129634891095
123	0.0001	-9.321416015625	0.552650756835938	-2.557880859375	0.209736073125903	0.862812270409374	-0.459962787256478	0.268484205919498	-0.503164502701062	-0.821426633603616	-0.940173925825165	0.0487900528039778	-0.337183214211328
124	0.0001	-9.44236450195313	0.528700561523437	-2.65428039550781	0.209721062046016	0.863173665212418	-0.459291083974044	0.26960018742531	-0.502577740257985	-0.821420327200036	-0.939857869613554	0.0484441810844018	-0.338112919369451
125	0.0001	-9.43996948242188	0.496966552734375	-2.6872119140625	0.209663413963253	0.863596380815447	-0.458522130205004	0.270642144099035	-0.501879912970331	-0.821504341311943	-0.939571222783431	0.0481439923495563	-0.338951432092999
126	0.0001	-9.32919982910156	0.59156982421875	-2.59260864257813	0.209671813507027	0.864248988591139	-0.457287017462631	0.271818983687932	-0.500768350200745	-0.82179407368518	-0.93922956231559	0.048007761418521	-0.339916289865678
127	0.0001	-9.35075500488281	0.573008422851563	-2.59200988769531	0.209634593090249	0.865031256058997	-0.45582262276118	0.273025886599719	-0.499424980798023	-0.822211380243141	-0.938887747617533	0.047912572419862	-0.340872678250675
128	0.0001	-9.45194458007813	0.56761962890625	-2.67463806152344	0.209356065199666	0.865832214384508	-0.454427787990713	0.274064028927229	-0.49805606743891	-0.82269621473267	-0.938647402389357	0.047694131937868	-0.341564523577033
129	0.0001	-9.38967407226563	0.587378540039063	-2.577041015625	0.208936760562089	0.866758193408567	-0.45285280637856	0.274974724760187	-0.49646085894957	-0.823356251129554	-0.938474469993126	0.0475063121087314	-0.342065519280953
130	0.0001	-9.34776123046875	0.614921264648438	-2.57404724121094	0.208712081670151	0.867827624423585	-0.450904071008712	0.276372592427792	-0.494602877241238	-0.824006179575997	-0.938113776212488	0.0473625180074517	-0.343073366451463
131	0.0001	-9.44595703125	0.485590209960938	-2.65188537597656	0.208432345271042	0.868790953227778	-0.449175062792207	0.277669405634214	-0.492929595887243	-0.824572686106678	-0.937792972152999	0.0471454461004345	-0.343979139327424
132	0.0001	-9.43458068847656	0.496966552734375	-2.70517456054688	0.208005115977355	0.86973885051494	-0.447535700958256	0.278932268993072	-0.491288364759447	-0.825125767362991	-0.937513019131801	0.0467982324125522	-0.344788724295672
133	0.0001	-9.45014831542969	0.44307861328125	-2.53752319335937	0.207453912774063	0.870603089432576	-0.44610888216352	0.28016299624168	-0.489803627014528	-0.825591365325666	-0.937268141788472	0.0462889580123321	-0.345522448987785
134	0.0001	-9.38787780761719	0.458047485351563	-2.46866638183594	0.206726908471812	0.871497752968792	-0.444697258687339	0.281275318308276	-0.488265504348868	-0.826124078194991	-0.937095609115881	0.0456997137112773	-0.346068426098716
135	0.0001	-9.42021057128906	0.400567016601563	-2.58242980957031	0.206243805043037	0.872196483294948	-0.4435502084424	0.282218122818882	-0.487054886021774	-0.826517071302767	-0.93691857919136	0.0452861185159719	-0.346601707202664
136	0.0001	-9.42021057128906	0.522713012695313	-2.5435107421875	0.205635915163761	0.873127743140692	-0.441997527767752	0.283119031403793	-0.485413897191764	-0.827174082324925	-0.936780382187704	0.0449587874741526	-0.347017611912009
137	0.0001	-9.45014831542969	0.473615112304688	-2.5818310546875	0.203437056671831	0.875064179685343	-0.439176553796217	0.285201040960914	-0.482068271033521	-0.82841447856587	-0.936628918092706	0.0432765929154623	-0.347639765127806
138	0.0001	-9.16454223632813	0.484392700195312	-2.54770202636719	0.2035423480701	0.875484096933645	-0.438289982270176	0.286676867990482	-0.481334222775822	-0.828331901681906	-0.936155374871756	0.0429530208608879	-0.3489529367947
139	0.0001	-9.51661010742188	0.544866943359375	-2.45309875488281	0.203244899146144	0.876184964404462	-0.437025650417255	0.287912246724773	-0.480089672888965	-0.828625635719328	-0.935840824690271	0.0425888968736973	-0.349840158795577
140	0.0001	-9.43218566894531	0.486787719726563	-2.68361938476563	0.203006619913557	0.876991300866406	-0.435516441108624	0.289681569112075	-0.478658533994409	-0.828836893695672	-0.935346406839754	0.042098290214358	-0.351219067211603
141	0.0001	-9.44895080566406	0.437091064453125	-2.57943603515625	0.2024576383605	0.877827931084237	-0.434084125576895	0.29082369560923	-0.477161277611745	-0.829300122525083	-0.935110946755346	0.041656194692928	-0.351898108409275
142	0.0001	-9.37590270996094	0.4550537109375	-2.46148132324219	0.202136159619036	0.878814268345025	-0.432234259086051	0.292013208366406	-0.475352505921548	-0.82992064756437	-0.934809744875408	0.0415388597256105	-0.352711304069873
143	0.0001	-9.41841430664063	0.472417602539063	-2.44651245117188	0.201776880321232	0.879708518720096	-0.430579856309054	0.293112004262584	-0.473711007245639	-0.830471694021833	-0.93454344121876	0.0413618629369724	-0.35343705630477
144	0.0001	-9.48188232421875	0.487386474609375	-2.45549377441406	0.200722872437087	0.880911416364423	-0.428608685165655	0.294233432809335	-0.471523273953117	-0.831319727383976	-0.934418008975555	0.0407538788259417	-0.353839096006647
145	0.0001	-9.38009399414063	0.44786865234375	-2.37526062011719	0.200221426973605	0.881971671495407	-0.426658353791709	0.295450361419682	-0.469556649493529	-0.83200098368535	-0.934141565351651	0.0405280593664372	-0.354594151511779
146	0.0001	-9.44236450195313	0.3592529296875	-2.37645812988281	0.199672355941114	0.883290990392737	-0.424179179786024	0.29688555640228	-0.467083748676309	-0.832881587095186	-0.933804003350079	0.0403707569102331	-0.355500049667874
147	0.0001	-9.42919189453125	0.307760009765625	-2.31957641601563	0.198974792699455	0.884529262287579	-0.421920627638895	0.298124718416287	-0.464757260133653	-0.833739972306876	-0.933558077539592	0.0401082698461412	-0.356175016741111
148	0.0001	-9.36752014160156	0.338296508789063	-2.47585144042969	0.19839849946976	0.885655127658798	-0.419824999565089	0.299522365613081	-0.462634749533798	-0.83441922378463	-0.933233297683753	0.0398005449143459	-0.357059559063792
149	0.0001	-9.36632263183594	0.4215234375	-2.45010498046875	0.19804730768042	0.88671333399165	-0.417751992505062	0.300816802490726	-0.460610474231519	-0.835073195814277	-0.932891480966459	0.0397171795275994	-0.357960934168213
150	0.0001	-9.40584045410156	0.402962036132813	-2.45788879394531	0.197789105914693	0.88768714961088	-0.415801628180046	0.302112819183428	-0.458735802977814	-0.835637066884507	-0.93252737979456	0.0396609062177294	-0.358914611643885
151	0.0001	-9.38248901367188	0.35206787109375	-2.481240234375	0.197440017269249	0.888807081717323	-0.41356911280928	0.303433726948419	-0.456564155779534	-0.836347502541565	-0.9321724158818	0.0396376480944294	-0.359838080145266
152	0.0001	-9.49265991210938	0.431103515625	-2.50219665527344	0.196891334879948	0.889927851558638	-0.411414901613226	0.30463199683609	-0.454388828236812	-0.837096254487639	-0.931897606367164	0.0394868559625151	-0.36056572140644
153	0.0001	-9.47110473632813	0.3879931640625	-2.42495727539062	0.196544624033793	0.89087303779451	-0.409530757445881	0.305916345133765	-0.452544913353693	-0.83762658218188	-0.931549998949823	0.0393488491379425	-0.361477893553818
154	0.0001	-9.51720886230469	0.468825073242188	-2.46507385253906	0.195950734440459	0.892068431601202	-0.407206609736159	0.306687193502837	-0.450175675563386	-0.838620788242459	-0.931421641907465	0.039443307057359	-0.361798217954125
155	0.0001	-9.24776916503906	0.401165771484375	-2.36328552246094	0.195085815965654	0.893204754780011	-0.405125647728449	0.307644890137664	-0.447944070928408	-0.839464550110527	-0.931287359508975	0.0391327913451842	-0.362177413238781
156	0.0001	-9.44835205078125	0.467627563476563	-2.56326965332031	0.194538339272998	0.894277102192524	-0.403017740362686	0.308693084510004	-0.445807023954521	-0.840217041584204	-0.931055000592663	0.0390456385138528	-0.362783715158829
157	0.0001	-9.35255126953125	0.545465698242187	-2.29921875	0.193968074170658	0.895277921433169	-0.401065866905712	0.309525104230639	-0.443799327688062	-0.840973463668525	-0.930897736624995	0.0389820489190694	-0.363193892856878
158	0.0001	-9.32740356445313	0.461041259765625	-2.40579711914063	0.193531704311425	0.89635040831081	-0.398875199714598	0.31090085366418	-0.441639406147453	-0.841602812571708	-0.930530031013078	0.0388661865735529	-0.364147334088869
159	0.0001	-9.40823547363281	0.503552856445313	-2.4908203125	0.192992150038346	0.897447297539909	-0.396664062100275	0.312093154395498	-0.439414996571359	-0.842325545004816	-0.930242921501177	0.0387660795864937	-0.364890802940344
160	0.0001	-9.42619812011719	0.4454736328125	-2.38184692382813	0.192388006975315	0.898547786622925	-0.394460048581741	0.313631329717171	-0.437188030108867	-0.84291281598358	-0.929850656714241	0.03845128716404	-0.365922470919077
161	0.0001	-9.39087158203125	0.461640014648438	-2.40280334472656	0.19192480354535	0.899600125925489	-0.39228112778838	0.315314191857405	-0.435042713435344	-0.843394805473762	-0.929377119471633	0.0381765755622157	-0.36715217401093
162	0.0001	-9.41661804199219	0.374820556640625	-2.50159790039063	0.191290588764835	0.900775489659798	-0.389886429461393	0.317063023377507	-0.432634579156808	-0.843977701201001	-0.928912778390263	0.037826421268241	-0.368361523502823
163	0.0001	-9.48846862792969	0.369431762695313	-2.50159790039063	0.190785351448255	0.901811650065149	-0.387732765548051	0.318796434075969	-0.430499610564742	-0.844416318485173	-0.928423278086678	0.0374944410597025	-0.369627357748866
164	0.0001	-9.48367858886719	0.340691528320313	-2.50878295898438	0.190399051181477	0.902754708385498	-0.38572287694277	0.320203291059813	-0.428530619886654	-0.844885412475576	-0.928018347719299	0.0373556462582863	-0.370656852073407
165	0.0001	-9.39087158203125	0.471220092773438	-2.42076599121094	0.190009474339479	0.903713842418535	-0.383663512315626	0.321214633338806	-0.426498550376114	-0.845529506200753	-0.927748650761752	0.0374202825777818	-0.371324875899189
166	0.0001	-9.50283874511719	0.686173095703125	-2.34472412109375	0.189130939494447	0.904703291796283	-0.381760974352955	0.322447071686782	-0.424439010572275	-0.846096573840745	-0.927500605760754	0.0369253316491303	-0.371993476012732
167	0.0001	-9.36033508300781	0.358055419921875	-2.40400085449219	0.188660085574743	0.905778990416882	-0.37943615092701	0.323922850471858	-0.422147162007243	-0.846679254825236	-0.927082174919309	0.0368265410893416	-0.373044832182779
168	0.0001	-9.33458862304687	0.50055908203125	-2.5339306640625	0.188359607124033	0.906784366776832	-0.377177372827719	0.325524023468949	-0.419986739444832	-0.847139450642624	-0.926582305328926	0.0367865581379866	-0.37428863273107
169	0.0001	-9.39446411132812	0.480201416015625	-2.42795104980469	0.18768657422423	0.907896546107562	-0.374830110079129	0.326950525984662	-0.41759658139928	-0.847771460219078	-0.926216553196025	0.0365644194483317	-0.375214525060106
170	0.0001	-9.41661804199219	0.47900390625	-2.42555603027344	0.187239647219894	0.908931744536707	-0.372537781013453	0.328403309230977	-0.415344608023665	-0.84831605140526	-0.925792947151312	0.0364957580977111	-0.376265170651976
171	0.0001	-9.35794006347656	0.413739624023438	-2.4764501953125	0.186623858942307	0.909939708518914	-0.370379888943765	0.329892781065299	-0.413155777764941	-0.848806842750722	-0.925387642166506	0.0362219568764604	-0.377287266635856
172	0.0001	-9.45793212890625	0.390986938476563	-2.59320739746094	0.185985867203101	0.91093458156096	-0.368249162004571	0.331245584219752	-0.410978538467464	-0.849336802366448	-0.925032767060511	0.0359837329289949	-0.37817925753387
173	0.0001	-9.41003173828125	0.405955810546875	-2.59979370117188	0.185345043131559	0.911968429994821	-0.366006554148069	0.332407672608721	-0.408688612113759	-0.849987504331319	-0.924744480479562	0.0358775838276768	-0.378893711746809
174	0.0001	-9.39566162109375	0.438887329101563	-2.55189331054688	0.184752800595265	0.912931106283378	-0.36389998330917	0.333586937556474	-0.406544886312768	-0.850553355471973	-0.924438293107712	0.0357498334701886	-0.379652198259083
175	0.0001	-9.40823547363281	0.4215234375	-2.55069580078125	0.184191861953856	0.913840617803395	-0.361895956377909	0.334510789004098	-0.404498984357061	-0.851165732213159	-0.924216365376543	0.0357196991422916	-0.380194967172576
176	0.0001	-9.19028869628906	0.595761108398438	-2.59021362304688	0.184305561325988	0.914817593062026	-0.359360865271267	0.335881451374352	-0.402235315723943	-0.851698539042494	-0.923696438602516	0.0362701283242949	-0.381404466550102
177	0.0001	-9.36752014160156	0.593366088867188	-2.54830078125	0.184333674174179	0.915764107473903	-0.356927438043047	0.337263519024995	-0.400035741482666	-0.85218819768364	-0.923187096584611	0.0367083777759231	-0.382593883511924
178	0.0001	-9.38069274902344	0.605341186523437	-2.64170654296875	0.184023147673538	0.916745502909847	-0.354560522358167	0.33855755631712	-0.397765294156401	-0.852737680547337	-0.922775304275588	0.0368843280980499	-0.383569138695818
179	0.0001	-9.52259765625	0.49576904296875	-2.53213439941406	0.183501479459671	0.917854300198847	-0.351952682391535	0.339670022810453	-0.395182618613405	-0.853495737276876	-0.922470315316465	0.0370699548466963	-0.384284186257522
180	0.0001	-9.33997741699219	0.417332153320313	-2.44052490234375	0.182738761837412	0.918845815702515	-0.349755503013334	0.340618342063832	-0.392882209707634	-0.85417955626726	-0.922272026016086	0.0369585749350053	-0.384770546906799
181	0.0001	-9.36871765136719	0.514330444335938	-2.41058715820313	0.182258678384722	0.919749877208676	-0.347623269543452	0.341873873386581	-0.390764360990278	-0.854649325089253	-0.921902396595817	0.0369239428350346	-0.385658649062101
182	0.0001	-9.50044372558594	0.537083129882812	-2.60877502441406	0.181462122389741	0.920738318428006	-0.345416338808949	0.342922076755079	-0.388446011426501	-0.855286002154148	-0.921670194490304	0.0367511249516277	-0.386229733970594
183	0.0001	-9.40224792480469	0.39517822265625	-2.63152770996094	0.180447711825261	0.921724361081926	-0.343311557459317	0.343976580107021	-0.386137910854607	-0.855907486904232	-0.921476389081622	0.0363554120999074	-0.386729295988991
184	0.0001	-9.40464294433594	0.372425537109375	-2.48782653808594	0.179602704573221	0.922566355374381	-0.34148819663528	0.3450562739053	-0.384157899683692	-0.856363752122429	-0.9212377740565	0.0359726012660493	-0.387333106782236
185	0.0001	-9.42500061035156	0.429307250976563	-2.55967712402344	0.179107742248421	0.923316247547297	-0.339716828670367	0.346340795048154	-0.382370671775724	-0.856645039121335	-0.920852034993725	0.0357739623324001	-0.388267630980171
186	0.0001	-9.47349975585938	0.57240966796875	-2.61236755371094	0.178550676220922	0.924118638746787	-0.337823026956182	0.347543070004452	-0.380442463223575	-0.857016538153296	-0.920507181130562	0.0356128305132359	-0.389099287830116
187	0.0001	-9.37590270996094	0.475411376953125	-2.54231323242188	0.177787635389567	0.924994547575008	-0.335822339428294	0.34850240648347	-0.378325051048858	-0.857564124963323	-0.920292143494563	0.0354294045304834	-0.389624342048592
188	0.0001	-9.37470520019531	0.484392700195312	-2.62374389648438	0.17706862136536	0.925792291649203	-0.333999006062424	0.349285948625352	-0.376382591030511	-0.858099919159795	-0.920133701926333	0.0352814100069132	-0.390011785318425
189	0.0001	-9.40763671875	0.568218383789063	-2.51357299804688	0.17636298150283	0.926600147765097	-0.332126880750616	0.3500499082052	-0.374399446498441	-0.858655994113587	-0.91997889134532	0.0351741470879163	-0.390386499325571
190	0.0001	-9.40105041503906	0.564625854492187	-2.50938171386719	0.175543375461628	0.927493969161882	-0.330059783220975	0.351029730968458	-0.372199084695455	-0.859212412228826	-0.919762279780896	0.0349682501736089	-0.390915042140931
191	0.0001	-9.37530395507813	0.480800170898438	-2.46507385253906	0.174659860873314	0.928385260534207	-0.328016373101327	0.351916330178068	-0.369991931434236	-0.859802807175904	-0.919591664573856	0.034738720419689	-0.39133667314716
192	0.0001	-9.38069274902344	0.444276123046875	-2.51237548828125	0.173780753848252	0.929272370508634	-0.325964892283199	0.35285868238204	-0.367781095253865	-0.860364932015176	-0.919397084974465	0.0344953240763438	-0.391815100216064
193	0.0001	-9.37470520019531	0.417332153320313	-2.529140625	0.17314629439513	0.930034063842467	-0.324124977176863	0.353912404587236	-0.365866829061775	-0.860748205500053	-0.919111729125744	0.0343235121301454	-0.392499077576669
194	0.0001	-9.44595703125	0.4215234375	-2.55548583984375	0.17242213804667	0.930747668070412	-0.322458345671042	0.354806571139754	-0.364071489203271	-0.861141247313914	-0.918903097931151	0.034069475059101	-0.393009373274647
195	0.0001	-9.36273010253906	0.480800170898438	-2.51836303710938	0.171792989598536	0.931498725366939	-0.320620169927853	0.355894910767682	-0.362162188974542	-0.861497162715486	-0.91860001154717	0.0338920863467577	-0.393732580908163
196	0.0001	-9.35913757324219	0.444276123046875	-2.48064147949219	0.171315734032114	0.93217395207731	-0.318908517198282	0.357164902135585	-0.360436890345593	-0.861695120538858	-0.918196140242114	0.0337190027516765	-0.394688328808842
197	0.0001	-9.45733337402344	0.473016357421875	-2.52854187011719	0.170724270674573	0.932900829295984	-0.317095042694616	0.358298801739627	-0.358567176978051	-0.862004378333392	-0.917864473696734	0.0335502949742003	-0.395473369056074
198	0.0001	-9.32440979003906	0.4167333984375	-2.50578918457031	0.169934407187899	0.933598525151679	-0.315461710970298	0.359247579337511	-0.356778080500413	-0.862351771619088	-0.917640165856877	0.0332143810577746	-0.396021881841285
199	0.0001	-9.46631469726563	0.402962036132813	-2.51536926269531	0.169329219020417	0.934229922605946	-0.313914108146839	0.360240088649372	-0.355143212515428	-0.862612530128165	-0.917362902081738	0.032981059896722	-0.3966831929541
200	0.0001	-9.426796875	0.429307250976563	-2.56506591796875	0.168574679166011	0.934853127587482	-0.312461529446394	0.361046695649369	-0.353529624932445	-0.86293805563076	-0.917184747531678	0.0326563031439276	-0.397121775731606
201	0.0001	-9.40464294433594	0.411344604492188	-2.47225891113281	0.167918640955464	0.935470503541753	-0.310963449657687	0.361906640182256	-0.351915148903139	-0.863237691348375	-0.916966146491604	0.0324139626676536	-0.397646100461854
202	0.0001	-9.36871765136719	0.45984375	-2.52075805664062	0.167199746220875	0.936072016413535	-0.309537437075347	0.362988431216026	-0.350349612684263	-0.863420261341669	-0.916669866237024	0.0320051398916789	-0.398361679072561
203	0.0001	-9.45912963867188	0.406554565429688	-2.55069580078125	0.166589027439619	0.936685122944288	-0.308008240785156	0.364053047536119	-0.348731396625758	-0.863627113740133	-0.916358813192947	0.031739462224379	-0.399097897791157
204	0.0001	-9.39147033691406	0.444276123046875	-2.49920288085938	0.165831369003586	0.937361185352793	-0.306355945345285	0.364827335884358	-0.346930511643739	-0.864025598626647	-0.916188284167572	0.0315155245017453	-0.399506945708658
205	0.0001	-9.3884765625	0.5029541015625	-2.5243505859375	0.165213136062344	0.938040604610945	-0.304605390256932	0.365968637130792	-0.34510767382848	-0.864272902561064	-0.915844733734423	0.031313217110796	-0.400309762715196
206	0.0001	-9.42919189453125	0.473615112304688	-2.55847961425781	0.164655998834965	0.938764229184851	-0.302671643948739	0.366983460428396	-0.34313644578577	-0.864627387575428	-0.915538935174065	0.031290598851439	-0.401010419570188
207	0.0001	-9.41302551269531	0.487386474609375	-2.59560241699219	0.163969981424354	0.93951503843792	-0.300708060651341	0.367906674995505	-0.341082791603668	-0.865047517634494	-0.915291496565684	0.0312093226591297	-0.40158119290339
208	0.0001	-9.32440979003906	0.426912231445313	-2.50638793945313	0.163372081560571	0.940269302277199	-0.298669051228472	0.369061522596869	-0.339003368959122	-0.865372930228838	-0.914933415886122	0.0311505221387138	-0.402400906392417
209	0.0001	-9.44954956054688	0.489182739257813	-2.55967712402344	0.162680780672417	0.941061745071388	-0.296543007948269	0.369972309045372	-0.336797959235458	-0.865845035323565	-0.914688719805513	0.0311436449058929	-0.40295734171563
210	0.0001	-9.34716247558594	0.46702880859375	-2.54111572265625	0.161979791440918	0.94186004203694	-0.29438445675499	0.371067228239119	-0.334565186449936	-0.86624202630827	-0.914369541975067	0.0310772783540187	-0.40368619431238
211	0.0001	-9.41841430664063	0.367635498046875	-2.56566467285156	0.161093975017291	0.942646724945656	-0.292345485961997	0.371960071636463	-0.332360564143151	-0.866707655735568	-0.914163243803494	0.0308805335393398	-0.404168227755473
212	0.0001	-9.44954956054688	0.401165771484375	-2.57883728027344	0.160110951689027	0.943438422280823	-0.290324691532611	0.372521799770536	-0.330121955571264	-0.867321741423288	-0.914107210257612	0.030715432832313	-0.404307519520685
213	0.0001	-9.36213134765625	0.386795654296875	-2.57524475097656	0.159141355936263	0.944232987938548	-0.288267398988181	0.373203876045137	-0.327859315687834	-0.867886591682111	-0.913998301823179	0.0305341383593537	-0.404567387043244
214	0.0001	-9.3166259765625	0.399369506835938	-2.49920288085938	0.158503312362385	0.944865438524277	-0.286541450845211	0.374014363651502	-0.326040442222303	-0.868222831891587	-0.913777848140627	0.0304455763258168	-0.405071735782286
215	0.0001	-9.38787780761719	0.42870849609375	-2.49381408691406	0.157742010960903	0.945461981073036	-0.28498964950233	0.374745704576779	-0.324328725986408	-0.86854852161597	-0.913609935847495	0.0302079434169822	-0.405468081697255
216	0.0001	-9.38787780761719	0.434097290039062	-2.5674609375	0.156975525451355	0.9461011633872	-0.283286556417097	0.375517314981015	-0.322477167056028	-0.868904610919385	-0.913425109441776	0.0300177508302094	-0.40589839132026
217	0.0001	-9.40464294433594	0.461041259765625	-2.56506591796875	0.156127253667336	0.946738087460568	-0.281622574403761	0.376271099685313	-0.320627476594482	-0.869262952618055	-0.913260280645064	0.0297492017399044	-0.406288868653743
218	0.0001	-9.33039733886719	0.389789428710938	-2.50638793945313	0.155340146663466	0.947327799848965	-0.280070488391569	0.376982537544739	-0.318904012830255	-0.869588636647864	-0.913101092552683	0.0295003429485144	-0.406664633998357
219	0.0001	-9.39685913085938	0.435294799804688	-2.59380615234375	0.154618648315736	0.947905168987001	-0.278511874433999	0.377973392797104	-0.317210250915107	-0.869778001016249	-0.912813884606529	0.0292138207377952	-0.407329553000318
220	0.0001	-9.44176574707031	0.45265869140625	-2.61955261230469	0.153871920138479	0.948502327726572	-0.276887642357279	0.378872131600984	-0.31544283403217	-0.870029727281706	-0.912567444131679	0.02896813344052	-0.407898893300715
221	0.0001	-9.38727905273438	0.40954833984375	-2.64230529785156	0.15310239341423	0.949117767157073	-0.275200147524684	0.379888608352763	-0.313611621501217	-0.870248468026907	-0.912274247348151	0.0286917222583586	-0.408573717582536
222	0.0001	-9.36153259277344	0.423319702148438	-2.634521484375	0.152585650153857	0.949720000931627	-0.273403619576543	0.380927626205026	-0.311784986006984	-0.870450610944946	-0.9119274987415	0.0286712805967018	-0.409348500312406
223	0.0001	-9.45493835449219	0.439486083984375	-2.51357299804688	0.15206719968242	0.950426591625523	-0.271228429025865	0.38176911716528	-0.309604729565772	-0.870860064883761	-0.911662167669356	0.028882613482794	-0.409924245048782
224	0.0001	-9.45014831542969	0.528101806640625	-2.66026794433594	0.151188874604921	0.951257746461393	-0.268794761840496	0.382587306363878	-0.307038949565262	-0.871409224451459	-0.911465236421516	0.0289099160678876	-0.410360012121086
225	0.0001	-9.29387329101563	0.398171997070313	-2.5914111328125	0.15049935432857	0.95189689812256	-0.266912419514966	0.383323635998939	-0.305053644778225	-0.871782807752064	-0.911269956945381	0.0288889105396821	-0.410794956659151
226	0.0001	-9.43937072753906	0.516126708984375	-2.59919494628906	0.150026132528642	0.952519266458007	-0.264951328709252	0.3843171627394	-0.303093952263657	-0.872028883997046	-0.910929458291056	0.0290017780057706	-0.411541515390693
227	0.0001	-9.49206115722656	0.407752075195313	-2.54830078125	0.149428366621342	0.953060103814149	-0.26333932818066	0.384990557907212	-0.301392409464732	-0.872321549567209	-0.910743341217037	0.0289664294452431	-0.4119557165449
228	0.0001	-9.35135375976563	0.411344604492188	-2.48483276367188	0.149071023139863	0.953554626444176	-0.261746832735266	0.385917126491525	-0.299816528564707	-0.872455168292293	-0.910409688843742	0.0290451990235419	-0.412687018057418
229	0.0001	-9.48487609863281	0.4550537109375	-2.60638000488281	0.148384231461639	0.954103487137009	-0.260131996660423	0.386229405887657	-0.298064177047436	-0.872917288400626	-0.910389458353515	0.0290565344463798	-0.412730846829698
230	0.0001	-9.34237243652344	0.549656982421875	-2.56326965332031	0.147567560724316	0.954789395828623	-0.258071743193806	0.386549772776855	-0.295850756639416	-0.87352824966457	-0.910386230227609	0.0291468593350894	-0.412731598503026
231	0.0001	-9.35015625	0.470022583007813	-2.60398498535156	0.146942977628214	0.95542556245153	-0.2560659210827	0.387210248307396	-0.293777841079446	-0.873935239990026	-0.910206561683379	0.0292672975328681	-0.413119160005492
232	0.0001	-9.36512512207031	0.498762817382813	-2.61715759277344	0.146288293333068	0.9560005358095	-0.254288636721437	0.387756295179874	-0.291897954012438	-0.874322960919894	-0.910079551897567	0.029301194093441	-0.41339647947536
233	0.0001	-9.43697570800781	0.53408935546875	-2.56147338867188	0.145664069224403	0.956651979835428	-0.252188358997684	0.388567535952223	-0.289744064073107	-0.874679168231654	-0.909833638057533	0.0294171176588741	-0.413929201974972
234	0.0001	-9.43577819824219	0.5029541015625	-2.50279541015625	0.144837389393307	0.95737546983686	-0.249908664092273	0.389311017490542	-0.287339969853868	-0.875141516204584	-0.909647768256599	0.0294610162593078	-0.414334389384659
235	0.0001	-9.4124267578125	0.498762817382813	-2.59679992675781	0.144043827685003	0.958056056361644	-0.247749810443172	0.38987302149699	-0.285054412934246	-0.875638629101937	-0.909533068565768	0.0295393726319063	-0.414580538194754
236	0.0001	-9.4315869140625	0.530496826171875	-2.577041015625	0.143202168309168	0.958741819721517	-0.245575369507262	0.390507027648546	-0.282737046262368	-0.87610731307753	-0.909393974220553	0.0295615592942473	-0.414883976387908
237	0.0001	-9.36153259277344	0.484991455078125	-2.50339416503906	0.142356251838605	0.959353936275546	-0.243669289232514	0.391184140406415	-0.28066461449982	-0.876471529749918	-0.909235759226922	0.0294516403665835	-0.415238407451382
238	0.0001	-9.36632263183594	0.432899780273438	-2.47824645996094	0.141693057583789	0.95991579922703	-0.24183617559598	0.392033604683815	-0.278740744157468	-0.876705908697526	-0.908973448584265	0.0294152331432866	-0.41581487927677
239	0.0001	-9.40344543457031	0.42870849609375	-2.55907836914063	0.140977092002925	0.960465371027281	-0.240066096289805	0.392359630629951	-0.276835553989507	-0.877163608626835	-0.908944101571888	0.0294677298879604	-0.415875309573583
240	0.0001	-9.46691345214844	0.546663208007813	-2.61596008300781	0.140132211084985	0.961051219266164	-0.238208978343496	0.392327380645929	-0.274785441239087	-0.877822412381083	-0.909088658939236	0.0295552910670699	-0.415552998976067
241	0.0001	-9.38189025878906	0.583786010742188	-2.56446716308594	0.139598688613494	0.961544845881002	-0.236524238709424	0.392547549690104	-0.273031024498938	-0.878271302555968	-0.90907569947155	0.0297585117359764	-0.415566846138586
242	0.0001	-9.33877990722656	0.587378540039063	-2.50938171386719	0.139030520659936	0.962088662285321	-0.234639980026996	0.392964856898207	-0.271086447337422	-0.878686951828094	-0.908982472640699	0.0299590382358453	-0.415756323415513
243	0.0001	-9.3932666015625	0.595761108398438	-2.48902404785156	0.138423527694532	0.962707392120906	-0.232450863918303	0.393160943188171	-0.26884000729192	-0.879289214781273	-0.908990318832928	0.0303237140707536	-0.415712728495251
244	0.0001	-9.47290100097656	0.671204223632813	-2.33215026855469	0.138068204628004	0.963174379433857	-0.230721229350499	0.393765971087857	-0.267132176102585	-0.879538947690172	-0.90878244419885	0.0305861944822019	-0.416147754797572
245	0.0001	-9.3549462890625	0.7328759765625	-2.38424194335938	0.137453621624957	0.963748895547312	-0.228680056483986	0.394513196498372	-0.265036546573489	-0.879838034395556	-0.908551506349981	0.0307196242121267	-0.416641890593643
246	0.0001	-9.50942504882813	0.66821044921875	-2.45489501953125	0.136368775763676	0.964503399007778	-0.226134363375316	0.395262923652436	-0.262283738271077	-0.880326338254331	-0.908389111660001	0.030666495414253	-0.416999745655273
247	0.0001	-9.41482177734375	0.5412744140625	-2.4381298828125	0.13505220735595	0.965364908124944	-0.223229692131676	0.39601569401371	-0.259106418271502	-0.880928733840231	-0.908257932188387	0.030568908574413	-0.417292547795241
248	0.0001	-9.30045959472656	0.48139892578125	-2.24772583007813	0.134144908781719	0.966152125457975	-0.220352476548331	0.396855413441292	-0.256128949370434	-0.88142143275322	-0.908025838988234	0.0307901245115317	-0.417781095745462
249	0.0001	-9.60582458496094	0.71132080078125	-2.43154357910156	0.132609738872469	0.967193684058294	-0.216681874354826	0.39674516259255	-0.25213211968626	-0.88262260914953	-0.908299473255152	0.0310768682504926	-0.417164589993152
250	0.0001	-9.36093383789063	0.431702270507813	-2.40100708007812	0.130636030009975	0.968217907557909	-0.213279889224036	0.397256994534252	-0.248218041342181	-0.883501377614017	-0.908361771518841	0.0306901846921007	-0.417057555508491
251	0.0001	-9.48727111816406	0.801134033203125	-2.35969299316406	0.128337527499362	0.969427953311473	-0.209138524365261	0.398520121069318	-0.243518600952406	-0.884240014980706	-0.908136108817531	0.0301352671883204	-0.417589120468005
252	0.0001	-9.46212341308594	0.328716430664063	-2.32257019042969	0.125924592939822	0.970637933254672	-0.204951212292194	0.399464081272606	-0.23871855815542	-0.885122532627676	-0.908059163637466	0.0295880468989964	-0.41779552751882
253	0.0001	-9.44296325683594	0.465232543945313	-2.29083618164063	0.124674921220308	0.971574477933865	-0.201244124998091	0.401006526250834	-0.234864434561228	-0.885456076427551	-0.907551612814913	0.029693959078775	-0.4188894112666
254	0.0001	-9.79024108886719	0.909508666992188	-2.51237548828125	0.123931121375362	0.972369668269902	-0.197834034946787	0.402178430903207	-0.231482728849628	-0.88581502355772	-0.907134822874131	0.0302154674465015	-0.419754021608024
255	0.0001	-9.42021057128906	0.5508544921875	-2.39561828613281	0.121805072816095	0.973710462159416	-0.19248755834485	0.402558485512338	-0.2257287589456	-0.887126368183751	-0.907254203615656	0.0305689919064291	-0.419470316894469
256	0.0001	-9.37710021972656	0.334105224609375	-2.40699462890625	0.119097447975814	0.97515630053	-0.18677790935304	0.402451321027549	-0.219382964875385	-0.88876546339609	-0.907661132851258	0.0306806821816204	-0.418580892602662
257	0.0001	-9.33339111328125	0.32332763671875	-2.33035400390625	0.116565580974748	0.976550559836062	-0.181001296724342	0.402097308337006	-0.213042040148883	-0.89046664382072	-0.90814658506221	0.0310176274572302	-0.417501720747077
258	0.0001	-9.1250244140625	0.416134643554688	-2.39681579589844	0.114567547916051	0.977881348696978	-0.174992413650087	0.402887304259755	-0.206752625671755	-0.891591370440598	-0.908050712807832	0.0316452152530994	-0.417663121810837
259	0.0001	-9.48068481445313	0.298778686523438	-2.54171447753906	0.112171317293475	0.979371204983962	-0.168076287515251	0.403196138393165	-0.19945269081118	-0.893113373605513	-0.908212788701793	0.0324139935281414	-0.417251558969012
260	0.0001	-9.45134582519531	-0.0916094970703125	-2.31538513183594	0.109306813450247	0.980807023816989	-0.161460839105378	0.402734314485625	-0.192203390838295	-0.894909452674434	-0.908766797626953	0.0327938802449683	-0.416013784566488
261	0.0001	-9.25196044921875	0.15328125	-2.29083618164063	0.107520903588831	0.982009483910425	-0.155230888683352	0.402890274086486	-0.18577854880629	-0.896195156118323	-0.908910711972281	0.0338186976894511	-0.415617147563273
262	0.0001	-9.47589477539062	0.195792846679688	-2.34951416015625	0.105907019530294	0.983218632895483	-0.148542327776792	0.402971764678457	-0.179003599765241	-0.897536332491903	-0.909064057196268	0.0351970339407082	-0.415167085298963
263	0.0001	-9.29028076171875	0.2442919921875	-2.30640380859375	0.103953131111246	0.984548260964996	-0.140920077927062	0.402699973654787	-0.171219447007709	-0.899175529129218	-0.909409961321407	0.0367236000029354	-0.414276356376057
264	0.0001	-9.29387329101563	-0.0377215576171875	-2.51776428222656	0.102299063973992	0.985832713120964	-0.132923900223412	0.403255699483201	-0.163251200146098	-0.900407622405082	-0.909351275549971	0.03850853660446	-0.414243105270592
265	0.0001	-9.33279235839844	0.299976196289063	-2.21000427246094	0.100846076470264	0.987058212629929	-0.124684216083527	0.404001566441265	-0.155153303578781	-0.901504401931347	-0.909182491677858	0.0405405632472015	-0.414419665988526
266	0.0001	-9.35853881835938	0.471220092773438	-2.31778015136719	0.0994483155247633	0.988344015356702	-0.115265518902572	0.404801917194762	-0.146005729347642	-0.902672551279316	-0.908980440039681	0.0431095616569581	-0.414603576104949
267	0.0001	-9.26513305664063	0.169447631835938	-2.49860412597656	0.0986065816778842	0.989544004984047	-0.105258749042232	0.40598373914194	-0.136574340906101	-0.903617536880728	-0.908544960693819	0.0463692959424295	-0.415205904090574
268	0.0001	-9.62558349609375	0.522713012695313	-2.29861999511719	0.0974923495023591	0.990731367419374	-0.094586465204316	0.407187412938647	-0.126427851773255	-0.904552048828773	-0.908126451840734	0.0496724864219327	-0.415739090728574
269	0.0001	-9.7716796875	0.513731689453125	-2.71714965820312	0.0954277561747183	0.992048339577727	-0.0820587307514205	0.408167007004493	-0.114182146515807	-0.905738445584616	-0.90790596305149	0.0529389210139221	-0.415817547606434
270	0.0001	-9.43458068847656	0.25626708984375	-2.86324584960938	0.0932847279987981	0.993210406130552	-0.0695057456342564	0.409238004487192	-0.101889756042647	-0.906720868457824	-0.907646525474279	0.0561388169411644	-0.415964202819083
271	0.0001	-8.97713195800781	0.156873779296875	-2.85486328125	0.0894781772648339	0.994483482863412	-0.0547380864227113	0.41123290191842	-0.0869439350424195	-0.907374372868826	-0.907127971221877	0.0586801028560514	-0.416743913399686
272	0.0001	-9.49804870605469	0.0940045166015625	-3.03448974609375	0.0847473997797114	0.995606320090296	-0.0398237821764432	0.412545202769528	-0.0714412494780559	-0.908131380112406	-0.906986402269862	0.0605326628298566	-0.416787071330553
273	0.0001	-9.55912170410156	-0.108374633789063	-3.16920959472656	0.0810954302199476	0.996353981930987	-0.0265004507076419	0.412379317298156	-0.0577463076926293	-0.909180214595861	-0.907395630286012	0.0628021228792048	-0.415558736521947
274	0.0001	-8.9286328125	0.163460083007813	-3.32608337402344	0.0801232110269343	0.996614756124412	-0.0184200686701541	0.41492405900833	-0.0501489485593702	-0.90847295403575	-0.906321298608162	0.0651468405486361	-0.417537534666939
275	0.0001	-9.1825048828125	0.578995971679688	-3.57995544433594	0.0796918999133488	0.996773153830979	-0.00961669850029906	0.417469442059955	-0.04213410128766	-0.907713601558791	-0.905189740349696	0.0683227437280296	-0.419480078972916
276	0.0001	-9.38308776855469	0.816102905273438	-3.51349365234375	0.0782598545920483	0.99693261064627	0.000874636635584958	0.418914033043601	-0.0320888837673756	-0.907458724382387	-0.904647129038929	0.0713839853789117	-0.42014033197617
277	0.0001	-9.25016418457031	0.676593017578125	-3.70868774414063	0.0771237349557191	0.996964807168036	0.0106349788378561	0.420331808294491	-0.0228400748913899	-0.907082963082672	-0.904086887662001	0.0744278459137258	-0.420817532085201
278	0.0001	-9.22501647949219	0.8190966796875	-3.6643798828125	0.076373590241166	0.996897143627156	0.0190567505543651	0.421297292052776	-0.014941696773485	-0.906799502319298	-0.903701093516364	0.0772840910249066	-0.421131218092154
279	0.0001	-8.995693359375	1.11667785644531	-3.62007202148438	0.0759383399605458	0.996753393662663	0.0267589376844838	0.423067858475471	-0.00790744659256282	-0.90606349634745	-0.902910269987564	0.0801258042727264	-0.422294802052586
280	0.0001	-9.20525756835938	1.45856689453125	-3.88891296386719	0.0753437201587446	0.996525860135934	0.0354899128341669	0.423726594021853	0.000222045559949313	-0.905790110464013	-0.902651149310342	0.0832836164927129	-0.422237778831565
281	0.0001	-8.77654907226563	1.49030090332031	-3.71647155761719	0.0746749103866635	0.996215738942708	0.0444731294331454	0.424294387207454	0.00861814381691872	-0.905483296688239	-0.902439987335997	0.0864865832368491	-0.42204518736389
282	0.0001	-8.96815063476562	1.32205078125	-3.72126159667969	0.0740039935769314	0.995792210588229	0.0540488877450285	0.425483530681416	0.0174893909044113	-0.904797152031697	-0.901935238281298	0.0899555142145376	-0.422398900813977
283	0.0001	-9.17711608886719	1.57951538085938	-3.92244323730469	0.0722575624754053	0.995334531270401	0.0639375908667578	0.426371639647324	0.0271265952582609	-0.904141234948471	-0.901657401438909	0.0925922172238386	-0.422422314443743
284	0.0001	-9.22801025390625	1.31366821289062	-3.69252136230469	0.0697662258690733	0.99476216827309	0.0747054368878644	0.426343057697024	0.0379706412380413	-0.90376425441457	-0.90186710267175	0.0949023654952457	-0.421460876169864
285	0.0001	-9.15915344238281	1.28971801757813	-3.64222595214844	0.0672374440573268	0.994131947870222	0.0847395795387034	0.426153939348214	0.0481801409078397	-0.903366754978342	-0.902148516650466	0.0968521772902349	-0.420413736287844
286	0.0001	-9.26154052734375	1.35258728027344	-3.42427917480469	0.063375494414182	0.993526242220854	0.0942823033568172	0.425082131966077	0.0586006189298366	-0.903255859955647	-0.90293340163654	0.0973220092247842	-0.41861641000983
287	0.0001	-9.1537646484375	0.985550537109375	-3.41948913574219	0.0601619114700671	0.992919385525306	0.10242869840195	0.424206102656474	0.0674547922198935	-0.90304985104676	-0.903565009768126	0.097780084140999	-0.417144253547986
288	0.0001	-9.29207702636719	1.00231567382813	-3.34703979492188	0.0571482876978338	0.992324814771157	0.109661001283935	0.42344472820185	0.075379216079665	-0.902780447252419	-0.904117600410072	0.0980277296105789	-0.415886918351765
289	0.0001	-9.12262939453125	0.80233154296875	-3.28836181640625	0.0538903989116865	0.991875129787409	0.115236937716822	0.422391348842158	0.0819275876025999	-0.902703394705549	-0.904810131092951	0.0973221315982635	-0.414544363576117
290	0.0001	-9.26034301757813	0.83586181640625	-3.07221130371094	0.0508476796784597	0.991535848386651	0.11946202256567	0.421061457311996	0.0871821213280118	-0.902832502121543	-0.905605743487537	0.0962077911861181	-0.413064520719794
291	0.0001	-9.14717834472656	0.634081420898438	-3.03508850097656	0.0487576780968612	0.991275946232494	0.122452795996976	0.420079655167131	0.0908764609294568	-0.902925551838911	-0.906176457507735	0.0954644817186528	-0.411983932440237
292	0.0001	-9.11245056152344	0.975371704101563	-3.07760009765625	0.0472127603411847	0.991095345039158	0.124502900780174	0.419921782683228	0.0933999583807534	-0.902741460332145	-0.906331424860192	0.0949023962615561	-0.411772854246986
293	0.0001	-9.28010192871094	0.967587890625	-3.23028259277344	0.0458411240186314	0.990904026250022	0.126521943196448	0.420244536005375	0.095772799465047	-0.902342562910702	-0.90625223933866	0.094534552646769	-0.41203166995941
294	0.0001	-9.38308776855469	0.938248901367188	-3.36320617675781	0.0442644049004677	0.990667615917911	0.12891212988051	0.41960029664125	0.098668784945816	-0.902330350778412	-0.906629060596109	0.094032683939354	-0.411316910464157
295	0.0001	-9.10885803222656	0.969384155273438	-3.15962951660156	0.043093907378252	0.990419741457919	0.13119318151986	0.418936450219066	0.101298685019216	-0.902347398229322	-0.90699237363096	0.0938472809611768	-0.410557574563508
296	0.0001	-9.10526550292969	1.12925170898437	-3.03269348144531	0.0419638461276985	0.990076585471636	0.134117077656043	0.41829036570735	0.104495383587716	-0.902282596953564	-0.907343488197597	0.0939631295226066	-0.409754468817285
297	0.0001	-9.04479125976563	1.06039489746094	-3.17938842773438	0.0407403016976412	0.989766051517712	0.136760341768451	0.418423671507064	0.107393823574509	-0.901880367776456	-0.907337786571315	0.0939666425977084	-0.409766288436202
298	0.0001	-9.44416076660156	1.00471069335938	-3.23986267089844	0.0391071161619556	0.989321424160321	0.140405673542384	0.417718496238432	0.111460211939234	-0.901713856528092	-0.907734482855972	0.0939134753475581	-0.408898970140969
299	0.0001	-9.38009399414063	0.871188354492188	-3.25782531738281	0.0373879807381098	0.988907207641526	0.14375212544852	0.417127594503729	0.115276806843346	-0.901507530588367	-0.908078580740599	0.0936685244820377	-0.408190517677099
300	0.0001	-9.09209289550781	0.908311157226563	-3.113525390625	0.0357085212893762	0.988501001834419	0.146937642827412	0.416428063545511	0.118940643268948	-0.901354975173768	-0.908467153726023	0.0933750113848389	-0.407392363514363
301	0.0001	-9.27710815429688	0.444874877929687	-2.94527526855469	0.0333467078468993	0.988158236041487	0.149770816980983	0.415855687880688	0.122547639713222	-0.901136017956223	-0.908819038056011	0.0923329656411836	-0.406844662645156
302	0.0001	-9.76030334472656	0.36404296875	-2.96563293457031	0.0301691803494726	0.987915097334378	0.152031513232778	0.414163952320528	0.126074161591041	-0.901428603039284	-0.909702171677786	0.0901613344950234	-0.405355267150677
303	0.0001	-9.50403625488281	-0.1868115234375	-2.98239807128906	0.0269376294626682	0.987640662819206	0.154402996295317	0.410844987903601	0.129872390907296	-0.902407645133015	-0.911307171064413	0.0877444199141011	-0.402268761825369
304	0.0001	-9.91777587890625	0.865799560546875	-3.08598266601563	0.0246614971204068	0.987722823061651	0.15425769142219	0.408509332291014	0.130876776764826	-0.903322420143993	-0.912420920404026	0.0852929897868117	-0.400266373684197
305	0.0001	-9.03161865234375	1.17894836425781	-2.47764770507812	0.025981559095809	0.987924687358225	0.152740861249058	0.407887516778544	0.129018355238714	-0.903870586792009	-0.912662441564889	0.0857850576711945	-0.399610049469687
306	0.0001	-9.20825134277344	0.492176513671875	-2.9650341796875	0.0265422692529234	0.988225355689609	0.15068561416091	0.407235415240787	0.126974315310952	-0.904453890380809	-0.912937470211717	0.0853707773389723	-0.399070176610543
307	0.0001	-9.44715454101563	0.622705078125	-3.10933410644531	0.0272871999459297	0.988521164793388	0.148597831325475	0.407061889645275	0.124781598432842	-0.904837096217304	-0.912992895217443	0.0851789847795137	-0.398984352869135
308	0.0001	-9.25136169433594	0.69695068359375	-3.13029052734375	0.0277208364894691	0.988702794653236	0.147303560952222	0.406776159561061	0.123450016645824	-0.905148191956931	-0.913107174014682	0.0850110418417902	-0.39875858803027
309	0.0001	-9.40045166015625	0.298778686523438	-3.03628601074219	0.0265358442364145	0.988657413014461	0.147825466893272	0.406227985919863	0.124452066603426	-0.905257149418676	-0.913386376308598	0.0840726043945919	-0.398317868999319
310	0.0001	-9.34356994628906	0.168250122070313	-3.23746765136719	0.0265505209373995	0.988911088628339	0.146116147724563	0.40528179171428	0.122967401480374	-0.905883926051251	-0.913806182482268	0.0832699042936766	-0.39752280927779
311	0.0001	-9.21962768554688	0.480800170898438	-2.88719604492187	0.0264543140243697	0.989050673645106	0.145185860990876	0.404322346721702	0.122240426796123	-0.906410899094973	-0.914233891961437	0.0826803665864114	-0.396661502757932
312	0.0001	-9.25255920410156	0.419727172851563	-3.01353332519531	0.0263020337498422	0.989209214229937	0.144129571924755	0.40442891108199	0.121323392263809	-0.906486563811421	-0.914191150089333	0.0821326060233886	-0.396873753385316
313	0.0001	-9.41122924804688	0.450263671875	-2.83031433105469	0.0266597314148224	0.989322022909165	0.143287102377734	0.40451917349594	0.120400950515372	-0.906569274456815	-0.914140851835783	0.0821312735924181	-0.396989870025717
314	0.0001	-9.40584045410156	0.59156982421875	-3.17040710449219	0.0275174106657947	0.989486316754679	0.141984580379384	0.404781807681049	0.11884233670733	-0.906657701217171	-0.913999168643338	0.0824216474065005	-0.397255826587963
315	0.0001	-9.35554504394531	0.638871459960938	-3.00215698242188	0.0276147731454859	0.989661663584227	0.140738111170439	0.404135630369879	0.11771937350047	-0.907092355478866	-0.914282131822373	0.0819264348934848	-0.396706746471471
316	0.0001	-9.33818115234375	0.550255737304688	-3.03269348144531	0.0274785533913846	0.989840177353734	0.139503951197966	0.403481029854005	0.116700553535868	-0.907515310808789	-0.914575304527445	0.0812244058196163	-0.396174971758416
317	0.0001	-9.31902099609375	0.6466552734375	-3.2045361328125	0.0277918388370033	0.989967300822943	0.138536482543026	0.403071151038866	0.115725453694458	-0.907822265957063	-0.914746555552007	0.081070109587615	-0.395811036275127
318	0.0001	-9.19148620605469	0.755029907226562	-3.14466064453125	0.0284249221212145	0.990083101969312	0.137577160158322	0.402905093519535	0.114609250781905	-0.908037557180993	-0.914800256568841	0.0812414354257483	-0.395651765763211
319	0.0001	-9.14717834472656	1.16577575683594	-2.988984375	0.0297369935375094	0.990141799734836	0.136875591809537	0.402927623088608	0.113443339102706	-0.908173958757569	-0.914748622173062	0.082157320009171	-0.395582018046063
320	0.0001	-9.16633850097656	1.20828735351563	-3.23567138671875	0.0310137354551716	0.990063297637566	0.137159815121434	0.403384438668394	0.11315601156149	-0.908006999801037	-0.91450486212666	0.0834888239138936	-0.395866736955978
321	0.0001	-9.26513305664063	1.35498229980469	-3.10813659667969	0.0318250566185522	0.989664287352056	0.139827622847468	0.404015136742382	0.115221996699411	-0.90746661688441	-0.914198520592908	0.0853726526268742	-0.396172405814932
322	0.0001	-9.33099609375	1.45677062988281	-3.28177551269531	0.0314117933925597	0.989105035848069	0.143821164283472	0.403712742693678	0.119076676889002	-0.907103503690632	-0.914346389845015	0.0865561845338754	-0.395573894862043
323	0.0001	-9.22501647949219	1.21307739257813	-3.36919372558594	0.0300702271136889	0.988271996522727	0.149713868196352	0.403232113573492	0.125058839176049	-0.906512078974678	-0.914603544725465	0.0876284636001491	-0.394742458246756
324	0.0001	-9.23160278320313	0.9340576171875	-3.28177551269531	0.0283220401124606	0.987311057947637	0.15625215805929	0.402182892225211	0.131849316548953	-0.906015827084129	-0.915121185005151	0.088502161441917	-0.393345375179214
325	0.0001	-9.21843017578125	0.646056518554687	-2.98120056152344	0.0263800442010581	0.986371837321633	0.162402868837641	0.401551146493252	0.13832046009031	-0.90533094891888	-0.915456591006862	0.0890957286246142	-0.392429842294065
326	0.0001	-9.22801025390625	0.63228515625	-3.23627014160156	0.0251140957832851	0.985636680864682	0.167001842885163	0.401555633334367	0.143038915446941	-0.904595457652314	-0.915490226889629	0.0897786277563624	-0.392195668598929
327	0.0001	-9.15316589355469	0.863404541015625	-3.18836975097656	0.024806069191044	0.985059143372888	0.170420488758718	0.401841465911662	0.146269178419798	-0.903951748556505	-0.915373199960134	0.0909055086442433	-0.392209246822249
328	0.0001	-9.12921569824219	1.12865295410156	-3.12250671386719	0.024708882475064	0.984588829936232	0.173130895832128	0.403218861509145	0.148656151331385	-0.902948447251896	-0.914769927823441	0.0921204897736775	-0.393331659689066
329	0.0001	-9.34297119140625	1.02327209472656	-3.26022033691406	0.0236757096147613	0.983720049416612	0.178141306692235	0.403480034046488	0.153631619964495	-0.901998440948171	-0.914682088432961	0.0932319136501248	-0.393274061408902
330	0.0001	-9.3645263671875	0.890348510742188	-3.30273193359375	0.0225994819940839	0.982843616243632	0.18305105687414	0.402992656983916	0.158607662698615	-0.901354828993736	-0.914924139932182	0.0941383840015478	-0.39249430929242
331	0.0001	-9.35614379882812	0.818497924804688	-3.295546875	0.0216490933317165	0.982116510250403	0.187025337993237	0.402218578939349	0.162706300781038	-0.900969963118727	-0.915287676915802	0.0947302484939217	-0.391503063214523
332	0.0001	-9.25734924316406	0.928070068359375	-3.2045361328125	0.0209165766490054	0.981617741637007	0.189707949556016	0.402045879451388	0.165472528537764	-0.900543143394851	-0.915380580762693	0.0951075791027229	-0.391194249395071
333	0.0001	-9.23579406738281	0.890947265625	-3.21710998535156	0.0201063383490182	0.981241121300598	0.19173314013738	0.401781730113489	0.16767547623774	-0.900253506527722	-0.91551470578315	0.0951356743666247	-0.390873415516585
334	0.0001	-9.3262060546875	0.8574169921875	-3.19136352539063	0.0198442205627327	0.981100211802655	0.19248008029675	0.401331625959305	0.168510205168302	-0.900298415392917	-0.915717823849202	0.0951140639176081	-0.390402589553347
335	0.0001	-9.30644714355469	0.861608276367188	-3.1949560546875	0.0198309822095828	0.981122263556191	0.192369010235486	0.400941210797677	0.168453970727815	-0.900482873368575	-0.915889118632106	0.0949861237255724	-0.390031740594139
336	0.0001	-9.18489990234375	0.946631469726563	-3.23686889648438	0.0202058231062859	0.981414365893439	0.190833873121564	0.399944865630325	0.167001378228318	-0.901196229533715	-0.916316445977338	0.0945324393413283	-0.389137236387934
337	0.0001	-9.24297912597656	0.870589599609375	-3.2428564453125	0.0210540586716773	0.981892920782408	0.188263163499506	0.398610559540462	0.164446950020079	-0.902256516990559	-0.916878589801447	0.0940398465890179	-0.387930610827793
338	0.0001	-9.17651733398437	0.96998291015625	-3.17280212402344	0.0216927988588483	0.982459477390199	0.185210144872916	0.398416969920197	0.16141281913212	-0.902889705279349	-0.916947839605546	0.0933770694870975	-0.38792703223251
339	0.0001	-9.3836865234375	1.06398742675781	-3.25782531738281	0.0225470003176191	0.983203556678561	0.181114325527564	0.397874789859837	0.157371088806883	-0.90384179589225	-0.917162627002795	0.0924397454689457	-0.387643662513614
340	0.0001	-9.22202270507812	1.07955505371094	-3.16322204589844	0.0233632981499524	0.984024701924824	0.176492329298802	0.397276480533306	0.15286436061989	-0.904877828917994	-0.917401522951988	0.0912571819312459	-0.387358454704865
341	0.0001	-9.19447998046875	1.00890197753906	-3.22549255371094	0.0242834882699428	0.984958439293208	0.17107654737728	0.397088730473175	0.147545049995076	-0.905842700667811	-0.917458910430678	0.0899295896078581	-0.387532987736936
342	0.0001	-9.17412231445313	1.02866088867188	-3.27938049316406	0.025438151439199	0.98598542076697	0.164880715932269	0.396652065762667	0.141440104251417	-0.907007075846466	-0.917616498967606	0.0884728599307694	-0.387495179167567
343	0.0001	-9.23878784179688	0.817300415039063	-3.3194970703125	0.0266643038375268	0.987069490900485	0.158059593300496	0.395956494227316	0.134754487784204	-0.908327959880808	-0.917882056464813	0.0868046551486424	-0.387243440569949
344	0.0001	-9.1729248046875	0.724493408203125	-3.28057800292969	0.0282057980893046	0.988230408594007	0.150349900180438	0.394857848808528	0.127162657352592	-0.909899410819311	-0.918309159373055	0.0850312772169713	-0.386623809026815
345	0.0001	-9.25734924316406	0.762214965820313	-3.35242858886719	0.0304959667822066	0.989529094489812	0.141075040911532	0.393899315791043	0.117821254868671	-0.911570886393659	-0.918647552127238	0.0833685975613335	-0.386181760200154
346	0.0001	-9.20585632324219	0.847238159179688	-3.31291076660156	0.0329956750240384	0.990933895442156	0.130235556947946	0.39275157864078	0.106968156072591	-0.913402436531459	-0.919052491920284	0.081288550548424	-0.385661365247872
347	0.0001	-9.26094177246094	0.699345703125	-3.2907568359375	0.036124334399762	0.992354532076783	0.118014893682295	0.391177133771518	0.0946277334922198	-0.915437623253723	-0.919606156176912	0.0792343026775312	-0.384768037654807
348	0.0001	-9.25555297851563	0.805924072265625	-3.57696166992188	0.0385750712571248	0.993747169003985	0.104778470947393	0.38980039163947	0.0815845819093699	-0.917278371418616	-0.920091092531182	0.0762267675507712	-0.384215904607731
349	0.0001	-9.21004760742188	0.953816528320312	-3.60091186523438	0.0415173141944662	0.995012850900389	0.0906958607939683	0.388177931282749	0.0675797897906272	-0.919103294345581	-0.920648796386072	0.0733648318674252	-0.38343629869633
350	0.0001	-9.11245056152344	1.09093139648437	-3.59193054199219	0.0452740424356742	0.996122204727862	0.0754374862361964	0.386751702514884	0.0521483231128919	-0.920708245318979	-0.921071865645332	0.0708597604047387	-0.382890993197818
351	0.0001	-9.00227966308594	1.28073669433594	-3.6835400390625	0.0491476975584768	0.997009784947468	0.0596321435444342	0.385500923156082	0.0361423871757311	-0.921999330853905	-0.921397602596463	0.0683023906480809	-0.382571877378941
352	0.0001	-9.09388916015625	1.39749389648438	-3.63384338378906	0.0525997781687115	0.997653597413139	0.0438242273773896	0.38414349064276	0.0202937231465723	-0.923050347162952	-0.921773856178075	0.0653870351787956	-0.382174690026863
353	0.0001	-9.24357788085937	1.46036315917969	-3.82005615234375	0.0558290473115135	0.998048528320052	0.0279687789234237	0.383514315663037	0.00442724830514807	-0.923524319741477	-0.921845912914844	0.0622859100489277	-0.382518729282078
354	0.0001	-9.43577819824219	1.4705419921875	-3.90148681640625	0.0592452273801415	0.998161203892713	0.0128146040175522	0.382929011354309	-0.0108696766305065	-0.923713820613917	-0.921876008634506	0.0596327189837887	-0.382868859442386
355	0.0001	-9.07532775878906	1.56394775390625	-3.46798828125	0.0629894380229786	0.998010440468334	-0.00273704471131569	0.381049063318248	-0.026584459276277	-0.924172536850816	-0.922406603424886	0.0571701604089965	-0.381965483672248
356	0.0001	-9.05676635742187	1.9591259765625	-3.14885192871094	0.0660148012479951	0.997676716469242	-0.016829005655133	0.378914186439772	-0.0406674791286432	-0.92453782802869	-0.923074257755504	0.0546564319771619	-0.38071851690278
357	0.0001	-9.21364013671875	1.5759228515625	-3.29195434570313	0.0686425506464576	0.997179031669393	-0.0303674009365246	0.376685704768006	-0.0540918313120983	-0.924760484454615	-0.923794392743417	0.0520389525662712	-0.379336087594664
358	0.0001	-8.86935607910156	1.63280456542969	-3.46140197753906	0.0712686861211915	0.996450187403855	-0.0448084635016816	0.374830419197364	-0.0683848886948728	-0.924567825441984	-0.92435000471839	0.0490971589912522	-0.378373542621706
359	0.0001	-9.014853515625	2.05672302246094	-3.89849304199219	0.0739655339616233	0.995561961031977	-0.0581848909248446	0.374343746032455	-0.0817954994359786	-0.923675406232302	-0.924335360998464	0.0465389945978953	-0.378732441691567
360	0.0001	-9.69144653320313	1.95553344726563	-3.95836853027344	0.0770649895454433	0.994446565147456	-0.0716729827256214	0.373095763256929	-0.0954275763979608	-0.922872217104048	-0.924586685403857	0.0443802515679869	-0.378377925419378
361	0.0001	-8.77475280761719	0.78317138671875	-3.87214782714844	0.0788473084150916	0.993260800177988	-0.0849475413739473	0.36974788208926	-0.108273056346493	-0.922801955437837	-0.925780538597675	0.04135127687475	-0.375793116294891
362	0.0001	-8.27958251953125	0.35685791015625	-3.85298767089844	0.0804606391096713	0.991926707086751	-0.0980178214515051	0.367901570529354	-0.120947078762416	-0.921965421553798	-0.926377093820923	0.0381210166033614	-0.374662872642898
363	0.0001	-8.88492370605469	0.320333862304688	-3.50630859375	0.0829813057501508	0.990252538738389	-0.111866046762081	0.368252282471581	-0.134777931022782	-0.91990497648599	-0.92601531269762	0.0351399890636603	-0.375846806316264
364	0.0001	-9.53816528320313	0.173638916015625	-3.27039916992188	0.0833744226978195	0.988589309560007	-0.125458689071237	0.36750759265115	-0.147525946490002	-0.918245209329178	-0.926275809348145	0.030451143425119	-0.375613967898614
365	0.0001	-9.88065307617187	-0.125738525390625	-3.24824523925781	0.0827279069836609	0.986869686579107	-0.13872388084738	0.364783882692759	-0.159527229768263	-0.917324251227482	-0.927409732714564	0.0252840794516888	-0.373191509807742
366	0.0001	-9.74952575683594	-0.45265869140625	-3.02431091308594	0.0828296683178654	0.984837308092017	-0.152429402138896	0.362185869937713	-0.172244842985481	-0.916053005934902	-0.928418354872314	0.0206685910254101	-0.370961140392373
367	0.0001	-9.26034301757813	-0.228125610351563	-3.036884765625	0.0838800755946343	0.982510365446336	-0.166245344923541	0.35994111887729	-0.185443224422619	-0.914359448716481	-0.929196708915611	0.0168580042190861	-0.369200871930371
368	0.0001	-9.148974609375	0.360450439453125	-3.04287231445313	0.0838697156252093	0.980353474085084	-0.178529932084939	0.35841705524533	-0.196849152765149	-0.912571983771642	-0.929786580517386	0.0125489802354277	-0.367885087744581
369	0.0001	-8.8663623046875	0.18920654296875	-2.845283203125	0.0841124560609663	0.978260921044616	-0.189553858025448	0.358534517786956	-0.207199437274777	-0.910231505029512	-0.929719363190133	0.0086002063902908	-0.368168361160186
370	0.0001	-9.06395141601562	0.008382568359375	-2.73750732421875	0.0846204505084186	0.976092186361328	-0.200208449072749	0.358558015852522	-0.217298566369238	-0.90786424223106	-0.929664202077102	0.00503753692164066	-0.368373580211866
371	0.0001	-9.02143981933594	-0.406554565429688	-3.16382080078125	0.0858024780505756	0.973951749190433	-0.20989503331255	0.358153363627167	-0.226741152248315	-0.905712215882977	-0.929711838626855	0.00253774033391141	-0.368279047722064
372	0.0001	-9.30584838867188	-0.622106323242188	-3.43864929199219	0.0873118189091049	0.971919735458792	-0.21851469997347	0.356281270620183	-0.235310045166105	-0.90426369984048	-0.930290439854163	0.00110021345081329	-0.366822146341127
373	0.0001	-9.34476745605469	-0.699944458007813	-3.37098999023438	0.0894559375849373	0.969967194264018	-0.226188587869477	0.354640541287303	-0.243235161544124	-0.902810468849388	-0.930713555131894	0.000546113717376895	-0.365748520234271
374	0.0001	-9.63216979980469	-0.62989013671875	-3.54223388671875	0.0913188657544904	0.968043472997173	-0.233565192494267	0.352932148430722	-0.250782417245783	-0.901413932555093	-0.931181917436861	-0.000116567289410896	-0.364554828593284
375	0.0001	-9.39985290527344	-0.182021484375	-3.55001770019531	0.0937273654859766	0.965698125920198	-0.24216174461148	0.351557953805231	-0.259666010048953	-0.899433470770094	-0.931462391122335	-0.000832357780327808	-0.363836668170194
376	0.0001	-9.20825134277344	0.361049194335938	-3.18118469238281	0.096600153551689	0.963265869618738	-0.250573890821544	0.350695454969337	-0.268546833618006	-0.897159571100701	-0.93149401941056	-0.00120937231640311	-0.363754627765697
377	0.0001	-9.35315002441406	0.813109130859375	-3.056044921875	0.0994642945900323	0.96098987388689	-0.258080058099356	0.350432831057602	-0.27657981974388	-0.894818659968263	-0.931291407143146	-0.0014372185995265	-0.364272218792534
378	0.0001	-9.19807250976563	0.735869750976562	-2.9171337890625	0.102023660732504	0.959278786794901	-0.263392068703752	0.349591551740888	-0.282459419923847	-0.893309813585232	-0.931330725146624	-0.000940904664151643	-0.364173303656756
379	0.0001	-9.38787780761719	0.5700146484375	-2.71894592285156	0.103326335508744	0.958608222582655	-0.26531857075459	0.348746680832736	-0.284728299237137	-0.892919676242873	-0.931503849159242	-0.000266852864118261	-0.36373136762048
380	0.0001	-9.59025695800781	0.552650756835938	-2.75127868652344	0.104097898548812	0.958262152587376	-0.266265421030089	0.347725737436137	-0.285890735408516	-0.892946414367667	-0.931799570209289	0.000366505370939796	-0.362973038436186
381	0.0001	-9.49804870605469	0.458646240234375	-2.85905456542969	0.104143441533027	0.95816920323999	-0.266581922770656	0.346033125290696	-0.286201201291222	-0.893504308093148	-0.932424377516596	0.000806437787073566	-0.361364262027784
382	0.0001	-9.23100402832031	0.375419311523437	-2.75487121582031	0.104197041560444	0.958049542092322	-0.266990732848058	0.344733210981184	-0.28660053596957	-0.893878708790269	-0.932899774775755	0.00109894433288527	-0.360134422882206
383	0.0001	-9.31363220214844	0.564625854492187	-2.82253051757813	0.104112392166931	0.958218485466156	-0.26641686115602	0.343531940546812	-0.286032773955996	-0.894522810244199	-0.933352246272232	0.00160820831509106	-0.358958212114717
384	0.0001	-9.35614379882812	0.337098999023438	-3.00694702148437	0.103810778915572	0.958386803979961	-0.265928667386612	0.342423862612439	-0.285466742009818	-0.8951282799241	-0.933792921634406	0.00186364250237464	-0.357809036138138
385	0.0001	-9.3549462890625	0.367635498046875	-2.86983215332031	0.103541056019194	0.958564769455478	-0.265391847043566	0.341209787269043	-0.284866214671836	-0.895782965237871	-0.934267162427453	0.00219601851206058	-0.356567029760816
386	0.0001	-9.32860107421875	0.602347412109375	-2.9506640625	0.103366670059423	0.958776550431296	-0.264693894647935	0.340176696003748	-0.284149054672518	-0.896403441662675	-0.934663119533878	0.00261554426077865	-0.35552498071362
387	0.0001	-9.17412231445313	0.573607177734375	-2.89917114257813	0.103054385865065	0.959091357084419	-0.263673211229243	0.339633530995199	-0.283082077515425	-0.896946822288414	-0.93489510544109	0.00288204016592319	-0.354912433801318
388	0.0001	-9.38488403320313	0.43349853515625	-2.787802734375	0.102452809766611	0.959453577612311	-0.262587612384636	0.33896234809645	-0.281851222362263	-0.897588109895535	-0.935204762789341	0.00295311019696248	-0.354095087224176
389	0.0001	-9.24657165527344	0.386196899414063	-2.85785705566406	0.101849123509384	0.959751740158152	-0.261731452645205	0.338462167464938	-0.280834968789581	-0.89809525190811	-0.93545182518145	0.00288401947873718	-0.353442449624178
390	0.0001	-9.37111267089844	0.47660888671875	-2.93389892578125	0.101672733277122	0.959932219548562	-0.261137490951665	0.338560709336397	-0.280217105913125	-0.898251089421721	-0.935435353940397	0.00291674925973656	-0.353485772234415
391	0.0001	-9.37590270996094	0.561033325195313	-2.98299682617188	0.101294303821582	0.96013018274436	-0.260556128687436	0.338079125753888	-0.279537823646797	-0.89864403958425	-0.935650559099276	0.00293893417663493	-0.352915562030236
392	0.0001	-9.29507080078125	0.462837524414063	-2.88659729003906	0.101011211467397	0.960350933607427	-0.25985153352873	0.337887905341249	-0.278777802317318	-0.898952001143125	-0.935750233011989	0.00300354032277395	-0.352650648891417
393	0.0001	-9.54954162597656	0.4742138671875	-2.88719604492187	0.10065245606485	0.960633180573805	-0.258945892936671	0.33742386122057	-0.277801975277139	-0.899428263071115	-0.935956313599687	0.00315514069034972	-0.35210200811712
394	0.0001	-9.46272216796875	0.553848266601562	-2.85905456542969	0.0997844481093801	0.960968764970323	-0.258035068676563	0.336480019200756	-0.276640660532765	-0.900139512308317	-0.936388947283214	0.00299627959437343	-0.350951224124418
395	0.0001	-9.19567749023438	0.413739624023438	-2.883603515625	0.0990255179842744	0.961290241879855	-0.257128406938083	0.335821877552942	-0.275523089525334	-0.900727868834551	-0.9367057239842	0.00284569938406926	-0.350106110558288
396	0.0001	-9.19927001953125	0.414937133789062	-2.85486328125	0.0985660808247973	0.96151233261646	-0.256473706132409	0.335703231980341	-0.274748413969668	-0.901008684230682	-0.936796705667133	0.00270984272709968	-0.349863672026122
397	0.0001	-9.3262060546875	0.3305126953125	-2.94647277832031	0.0982583982118701	0.961610280818893	-0.256224423122092	0.335299945647412	-0.274406038033765	-0.901263153989696	-0.936973443396173	0.00264463873202853	-0.34939057264943
398	0.0001	-9.32321228027344	0.252674560546875	-2.79199401855469	0.0980580347370577	0.96156277166743	-0.256479351930629	0.334895388320081	-0.274573898418409	-0.901362442743905	-0.937139104245174	0.00249207756037001	-0.3489471146807
399	0.0001	-9.34356994628906	0.352666625976563	-2.67523681640625	0.0981727439668248	0.961290702723747	-0.257453485505458	0.334975767338183	-0.275527257376365	-0.901041600448533	-0.937098366041804	0.00221704748321128	-0.34905835767424
400	0.0001	-9.27770690917969	0.365240478515625	-2.73391479492187	0.0988671508555659	0.961030494838102	-0.258158235338205	0.334699786913992	-0.276429572479057	-0.900867772816174	-0.937123972119714	0.00266072363814518	-0.348986506083387
401	0.0001	-9.50583251953125	0.274229736328125	-2.49680786132813	0.0986812885878862	0.96096083992759	-0.258488427996876	0.334549450369065	-0.276673831384873	-0.900848631172059	-0.937197241001269	0.00241974223357322	-0.348791451023577
402	0.0001	-9.59923828125	0.105380859375	-2.65966918945313	0.097851585317503	0.96110443229334	-0.25826989270325	0.334543640964915	-0.276179589580417	-0.901002434285907	-0.937286306067036	0.00176196631324205	-0.348555986799713
403	0.0001	-9.35255126953125	0.0910107421875	-2.66745300292969	0.0974538811302149	0.961157454058241	-0.258222945457872	0.333925773400686	-0.2759959547029	-0.901287862364954	-0.937548035522134	0.00160670343119629	-0.347852123168269
404	0.0001	-9.18310363769531	0.05748046875	-2.442919921875	0.0973655946880098	0.961116133197499	-0.258409983318251	0.332773906091469	-0.276138624857619	-0.901670110010512	-0.937966666996049	0.0017995469517309	-0.346720771277251
405	0.0001	-9.17591857910156	0.1484912109375	-2.4093896484375	0.0982876494502719	0.960903941129919	-0.258849674302538	0.332312385714507	-0.276869756900089	-0.901616113440093	-0.938034123188636	0.00259877568761668	-0.346533158728934
406	0.0001	-9.63456481933594	0.957409057617188	-2.83690063476562	0.1005274528358	0.960516673932419	-0.259426194367782	0.331851157016865	-0.278185666035658	-0.901380909937006	-0.937960042226168	0.00452264414935233	-0.346713866000459
407	0.0001	-9.76090209960937	1.063388671875	-2.72014343261719	0.0999463320916893	0.960893284704326	-0.2582534145206	0.331173366973817	-0.276880255458018	-0.902031886988885	-0.93826165418216	0.00462812571501203	-0.345895430359701
408	0.0001	-9.21244262695313	0.0652642822265625	-2.77762390136719	0.0988260142515022	0.961606249570972	-0.256021170400442	0.330918471068803	-0.274395907306625	-0.902884185019796	-0.938470236295562	0.00450631106606242	-0.34533072372427
409	0.0001	-9.26034301757813	0.0089813232421875	-2.84408569335938	0.0985378889809839	0.961888327943091	-0.255070831343014	0.330666291515017	-0.273402805273485	-0.903277758900492	-0.938589414009596	0.00466375765168142	-0.345004581525651
410	0.0001	-9.41661804199219	0.451461181640625	-2.82911682128906	0.0991533287503612	0.961689732318281	-0.255580664666395	0.330661493122597	-0.274094036085364	-0.903070006338584	-0.938526288584213	0.00503171303122446	-0.345171098877519
411	0.0001	-9.43937072753906	0.683778076171875	-2.79977783203125	0.0990388870851939	0.96171640742231	-0.255524657400518	0.330529878366208	-0.274001224082092	-0.903146349551796	-0.938584731578426	0.00498807540450513	-0.345012783461154
412	0.0001	-9.17112854003906	0.63228515625	-2.77223510742188	0.0989083409682594	0.961864245744632	-0.255018259826658	0.329912051636999	-0.273477214511981	-0.903530990795244	-0.938815838315254	0.00523315400865498	-0.344379784289886
413	0.0001	-9.17112854003906	0.49097900390625	-2.70517456054688	0.0985324157788781	0.962013806400482	-0.254599291702932	0.329825271519561	-0.272953669584608	-0.90372096607711	-0.938885857443719	0.0050725294629918	-0.344191249361486
414	0.0001	-9.398056640625	0.475411376953125	-2.96982421875	0.0984306525761803	0.96194029275685	-0.254916221147837	0.32985749106286	-0.273216516360865	-0.903629775282637	-0.938885212485074	0.00485884332928632	-0.344196091521038
415	0.0001	-9.28189819335937	0.580792236328125	-2.89078857421875	0.0983676412167401	0.961827546858009	-0.255365575727346	0.329580921715006	-0.273615550438712	-0.903609952689548	-0.938988936677606	0.00472235780353902	-0.343914925721222
416	0.0001	-9.20346130371094	0.614322509765625	-2.711162109375	0.0986471517456807	0.961707539980848	-0.255709497274642	0.329689763705234	-0.274035401734175	-0.903443002244401	-0.938921402014275	0.00481727520231573	-0.344097943468388
417	0.0001	-9.60941711425781	0.5700146484375	-2.69439697265625	0.0985071688417051	0.961752707547579	-0.255593558627155	0.329211702002054	-0.273875851174838	-0.903665686749347	-0.939103824372844	0.00487315792466569	-0.343598980470168
418	0.0001	-9.47828979492188	0.473016357421875	-2.61176879882813	0.0980210525087671	0.961840115927728	-0.255451491788967	0.328576119672956	-0.27357218187183	-0.903988935157145	-0.939377244160053	0.0046746869436961	-0.342853526241516
419	0.0001	-9.37829772949219	0.613125	-2.73930358886719	0.0974773156817559	0.962084846413947	-0.254736964785504	0.328321000106694	-0.272712930932934	-0.904341184615026	-0.939523013989769	0.00451725609421155	-0.342455983421169
420	0.0001	-9.31902099609375	0.549656982421875	-2.92791137695313	0.0968728679309199	0.962377026667008	-0.253862376106439	0.328088050923343	-0.2716827034676	-0.904735729082177	-0.939666897522819	0.00435513261623183	-0.342063085584713
421	0.0001	-9.25555297851563	0.26584716796875	-2.81893798828125	0.0966361459558237	0.962506763021093	-0.253460423801159	0.328161187846677	-0.271224152028019	-0.904846779376343	-0.939665733165716	0.00426503169275877	-0.342067419405586
422	0.0001	-9.40584045410156	0.365839233398437	-2.87462219238281	0.0965339921020534	0.96248307882461	-0.253589257156412	0.328001707294781	-0.271309605013781	-0.904878985411296	-0.939731913037197	0.00417387153208942	-0.34188669236442
423	0.0001	-9.41003173828125	0.459244995117188	-2.81235168457031	0.0965008353598665	0.96240124413344	-0.253912256626685	0.327932229461106	-0.271601631999057	-0.904816559516965	-0.939759565876037	0.00404954143773806	-0.341812169997832
424	0.0001	-9.3166259765625	0.5508544921875	-2.864443359375	0.0965377758015906	0.962373172671579	-0.25400459516576	0.327672925728121	-0.271699949957618	-0.904880981642227	-0.939846216988745	0.00412476848654897	-0.341572941985862
425	0.0001	-9.33398986816406	0.555045776367188	-2.79678405761719	0.0964650896236707	0.96240829017312	-0.253899132511219	0.327256855834038	-0.271574109368443	-0.905069308633519	-0.939998636591307	0.00421736016835439	-0.341152131870363
426	0.0001	-9.29207702636719	0.571212158203125	-2.87043090820312	0.0965193960724033	0.962412408159174	-0.253862881893116	0.326912724261056	-0.271556969475296	-0.905198808575005	-0.940112800092645	0.00437823602067694	-0.340835376906966
427	0.0001	-9.34117492675781	0.610131225585938	-2.77642639160156	0.0963962869654266	0.962463255243464	-0.25371684643601	0.326505995655433	-0.271375743701626	-0.905399934024431	-0.940266765689575	0.00443712029855148	-0.340409637500354
428	0.0001	-9.35255126953125	0.540076904296875	-2.7351123046875	0.0962083990904503	0.962513534621153	-0.253597396704988	0.326370629220606	-0.271198768460649	-0.905501761659012	-0.940333002891315	0.00435013293148157	-0.340227747276556
429	0.0001	-9.38668029785156	0.56282958984375	-2.80097534179688	0.0961808861203972	0.962618314181073	-0.253209830670699	0.326157043767059	-0.270823770646029	-0.905690934068681	-0.940409921229157	0.00452398676562304	-0.340012813872531
430	0.0001	-9.31423095703125	0.473016357421875	-2.71235961914063	0.0959588951353779	0.962628660782383	-0.253254717398735	0.325721922472952	-0.270788471732439	-0.90585806437727	-0.940583393253848	0.0044345255806551	-0.339533820580443
431	0.0001	-9.26992309570313	0.464035034179688	-2.74409362792969	0.0960273523712389	0.962614108019395	-0.25328408287651	0.325569923677173	-0.270838632165826	-0.90589770952541	-0.940629030167265	0.00452927903414663	-0.339406118445177
432	0.0001	-9.38009399414063	0.513731689453125	-2.78600646972656	0.0961498799469199	0.962541946822767	-0.253511737781175	0.325196632649689	-0.271092651167578	-0.905955807198252	-0.940745635493196	0.00466637863571817	-0.339080925755094
433	0.0001	-9.47170349121094	0.59396484375	-2.69559448242188	0.0960562119375504	0.962513561640327	-0.253654977886617	0.324685776420125	-0.271193194017541	-0.906108932805005	-0.940931639779782	0.00467922825007933	-0.33856425399666
434	0.0001	-9.36512512207031	0.614921264648438	-2.65787292480469	0.0959209416975998	0.962542197261709	-0.253597498872615	0.324441862954095	-0.271092069812198	-0.906226554040332	-0.941029569411462	0.00464845948018922	-0.338292390274655
435	0.0001	-9.38069274902344	0.637673950195312	-2.71535339355469	0.0956613911359682	0.96261922471423	-0.253403090858235	0.324074926508557	-0.270819429194122	-0.906439340926597	-0.941182416035491	0.00458966028648494	-0.337867717848346
436	0.0001	-9.36871765136719	0.635877685546875	-2.76325378417969	0.0953100338400356	0.962699628096211	-0.253229981465128	0.323555016183007	-0.270535234946604	-0.906709897461807	-0.941396913608827	0.00448472025920787	-0.337271016145727
437	0.0001	-9.32979858398438	0.630488891601563	-2.64230529785156	0.0950306462296454	0.962786448307214	-0.253004804762987	0.323176084198164	-0.270227133275064	-0.906936885921111	-0.94155530633071	0.00442169627196209	-0.336829413386897
438	0.0001	-9.36093383789063	0.647852783203125	-2.7830126953125	0.0950444334275985	0.962888879560554	-0.252609503568349	0.322957207247558	-0.269858336126591	-0.907124644527888	-0.941629012913942	0.00463508809073843	-0.336620436095473
439	0.0001	-9.40703796386719	0.650247802734375	-2.711162109375	0.0948361514242673	0.963097484175554	-0.251891524981991	0.322505270615549	-0.269109502663432	-0.907507810435498	-0.94180489211313	0.00482820369908549	-0.33612532430749
440	0.0001	-9.33339111328125	0.680185546875	-2.67344055175781	0.0946889425645647	0.963319655301351	-0.251096088910382	0.322236944977544	-0.268309037129604	-0.907840080568227	-0.941911543324289	0.00504998066044293	-0.335823081767447
441	0.0001	-9.3884765625	0.650846557617188	-2.6872119140625	0.0942919584972483	0.963525611182922	-0.250454433295418	0.321923591088998	-0.267569313721779	-0.908169512731417	-0.942058505647668	0.00500589143231617	-0.335411259482819
442	0.0001	-9.34297119140625	0.519120483398438	-2.68302062988281	0.0935067202143819	0.963776081991214	-0.249784220991668	0.321253599932096	-0.266670882141448	-0.908670878342963	-0.942365437505758	0.00472275338836448	-0.334552055433851
443	0.0001	-9.25495422363281	0.499361572265625	-2.61176879882813	0.0930994362339754	0.963995058316704	-0.249090390247978	0.321036577355352	-0.265879347283404	-0.908979476494443	-0.942479713825649	0.00465835047256685	-0.33423089144781
444	0.0001	-9.44535827636719	0.510737915039063	-2.83690063476562	0.0926480469685178	0.964197144738875	-0.248475764352022	0.320438298889218	-0.265145992838593	-0.909404694889256	-0.942727763459793	0.00463341764133018	-0.33353095125199
445	0.0001	-9.43098815917969	0.561033325195313	-2.73451354980469	0.0924842419573463	0.964315696874492	-0.248076403051637	0.319738607585231	-0.264711162751959	-0.909777567943926	-0.942981382535749	0.00482048503460897	-0.332810569415994
446	0.0001	-9.29028076171875	0.528101806640625	-2.62254638671875	0.0924250289667616	0.964299818407822	-0.24816017859265	0.319880597437822	-0.26477119479967	-0.909710183403032	-0.942939031646965	0.00469836386388961	-0.332932287370401
447	0.0001	-9.36213134765625	0.580193481445313	-2.8117529296875	0.0926628162704778	0.964148784465086	-0.248657845030722	0.320447152894182	-0.265322697263885	-0.9093500362999	-0.942723302291206	0.00458123685431222	-0.333544281297173
448	0.0001	-9.29926208496094	0.570613403320313	-2.78720397949219	0.0927618432443591	0.964100354501925	-0.248808655169333	0.320428222930492	-0.26549788939596	-0.909305572772925	-0.942719997871858	0.00462354577714913	-0.333553036917565
449	0.0001	-9.41841430664063	0.63228515625	-2.76145751953125	0.0927188424863283	0.964109992600904	-0.248787335720852	0.320378121268327	-0.265463187672868	-0.909333357687453	-0.942741255944903	0.00460631714538778	-0.333493187609257
450	0.0001	-9.35734130859375	0.649649047851563	-2.77403137207031	0.0926050534479143	0.964161676145983	-0.248629375431139	0.320251115087787	-0.26527562119805	-0.909432827691533	-0.942795591504828	0.00459424089025962	-0.333339714990135
451	0.0001	-9.34835998535156	0.636476440429688	-2.711162109375	0.0924455008926938	0.96421562259918	-0.248479501167351	0.320293000722882	-0.265081247188716	-0.90947475285288	-0.942797021130546	0.00449060402972751	-0.333337083779794
452	0.0001	-9.35135375976563	0.6370751953125	-2.75966125488281	0.0922453830278961	0.964299315063153	-0.248228967444919	0.320053264057746	-0.264777077709545	-0.90964773802037	-0.942898031324713	0.00446431274971787	-0.333051606264935
453	0.0001	-9.24836791992188	0.561033325195313	-2.67703308105469	0.0922024987408696	0.964368743464213	-0.247975050872452	0.320085745320888	-0.264523417143988	-0.909710106256295	-0.942891199910314	0.00450426594715853	-0.33307040805206
454	0.0001	-9.4699072265625	0.697549438476563	-2.82193176269531	0.0920518892281078	0.964482449443887	-0.247588477931136	0.319925667031712	-0.264107800354257	-0.909887156391577	-0.942960241613532	0.00454692277875052	-0.332874312961204
455	0.0001	-9.302255859375	0.570613403320313	-2.67523681640625	0.0917699003139972	0.964616223753555	-0.247171653447137	0.319813818380483	-0.263620140522625	-0.910067878283663	-0.94302566612434	0.00446792818471631	-0.33268999180691
456	0.0001	-9.37650146484375	0.595761108398438	-2.75786499023438	0.091746221627964	0.964764888585775	-0.246599555086925	0.319714217216965	-0.263072015397971	-0.910261464648368	-0.943061742478368	0.00467166635435623	-0.332584914581431
457	0.0001	-9.359736328125	0.640068969726563	-2.864443359375	0.091427238842068	0.96496515193334	-0.245933559222775	0.31962622603675	-0.262337080228706	-0.910504438191589	-0.943122545392283	0.00463809134714394	-0.332412924660633
458	0.0001	-9.37290893554688	0.6083349609375	-2.82971557617188	0.091137105421717	0.965183414414443	-0.245183613960288	0.319298738025552	-0.26153134818133	-0.910851068953507	-0.943261545866596	0.00472551137263527	-0.33201705623601
459	0.0001	-9.27052185058594	0.614322509765625	-2.70218078613281	0.090672261696143	0.965518387750199	-0.244034390763194	0.319019273575918	-0.260291011022381	-0.911304171321541	-0.943400892540388	0.00477833623803736	-0.331620149352835
460	0.0001	-9.30824340820313	0.613125	-2.78241394042969	0.0902857211898286	0.965861633942052	-0.24281637635881	0.319237555223223	-0.259014252684715	-0.911591465647457	-0.94336412476007	0.00478758654952471	-0.331724595305652
461	0.0001	-9.42979064941406	0.681981811523438	-2.94168273925781	0.0900994986988349	0.966066971539636	-0.242067525361118	0.319102420711733	-0.258244968534047	-0.911856996092458	-0.943427647162267	0.00491352491452429	-0.331542051394364
462	0.0001	-9.40763671875	0.584983520507813	-2.79678405761719	0.0897896516066511	0.966254094107328	-0.241434968646182	0.319006745472815	-0.257544643049092	-0.912088511702433	-0.943489541440285	0.00487672610904039	-0.331366417633498
463	0.0001	-9.29387329101563	0.628692626953125	-2.83031433105469	0.0895590455748533	0.966464083476592	-0.240678941134186	0.319144755038243	-0.256755260176521	-0.912262770096022	-0.943464786140586	0.00488996129213798	-0.331436699222129
464	0.0001	-9.30884216308594	0.54845947265625	-2.89917114257813	0.089294878600359	0.966685127531361	-0.239888075704953	0.319117768271846	-0.255921009440277	-0.912506595537954	-0.943498953167911	0.00492961831659594	-0.331338835988643
465	0.0001	-9.39266784667969	0.608933715820313	-2.87162841796875	0.0891107110364106	0.966907147683853	-0.239060345805115	0.319134527798324	-0.255078701686585	-0.912736549675112	-0.943510696465879	0.00504219235664977	-0.331303700478446
466	0.0001	-9.38009399414063	0.5604345703125	-2.8596533203125	0.088841914481118	0.967189979553164	-0.23801398631862	0.319095347278896	-0.254001644060761	-0.913050559475975	-0.943549295784958	0.00516800410032703	-0.331191814749894
467	0.0001	-9.37051391601562	0.533490600585938	-2.94347900390625	0.0884825774205703	0.967405747018179	-0.237269791859841	0.318867276694743	-0.253178806020386	-0.9133587203478	-0.943660157761411	0.00515876131365101	-0.330875949315476
468	0.0001	-9.43757446289063	0.647852783203125	-2.58602233886719	0.0883461079993612	0.967666949146889	-0.236253340145947	0.319064203631818	-0.252175068036886	-0.91356760506346	-0.943606379356434	0.00533015847263041	-0.331026570305916
469	0.0001	-9.26932434082031	0.97716796875	-3.20513488769531	0.088518194397735	0.967957474244218	-0.234995441052203	0.320018898863263	-0.251050327932459	-0.913543451191759	-0.943266894166709	0.0056622345199569	-0.33198720678564
470	0.0001	-9.34416870117188	0.57719970703125	-2.9506640625	0.0879264668263832	0.968349616619672	-0.233597851924978	0.320236878786444	-0.249536054251167	-0.913881884651334	-0.94324825888869	0.00554775822235493	-0.332042082396435
471	0.0001	-9.26752807617188	0.283809814453125	-3.00095947265625	0.0871589776043443	0.968625594226722	-0.232739706178159	0.319069241268629	-0.248464711173388	-0.91458192994274	-0.943715069233944	0.00545394448586839	-0.330714563619926
472	0.0001	-9.37530395507813	0.525108032226563	-2.81055541992187	0.087172797267589	0.968728363426023	-0.232306395328418	0.318352588227347	-0.248055811942875	-0.914942590401338	-0.943955789740967	0.00580276272997154	-0.33002090079146
473	0.0001	-9.28129943847656	0.75922119140625	-3.11891418457031	0.0866853225906085	0.968929990281966	-0.231646991734301	0.317430375312758	-0.247266505704403	-0.9154765054252	-0.944311183708085	0.00582658467061592	-0.32900218727983
474	0.0001	-9.29566955566406	0.408350830078125	-2.63811401367188	0.0861332524406645	0.969149708315176	-0.2309326865054	0.316826131782112	-0.246406294607962	-0.915917649244493	-0.94456459019168	0.00572545632967886	-0.328275728779695
475	0.0001	-9.35195251464844	0.51732421875	-2.82851806640625	0.0851725290660093	0.969375997587554	-0.230338480488247	0.315556192986778	-0.245522279448892	-0.91659320276877	-0.945076679090216	0.00538382720329894	-0.326804352854202
476	0.0001	-9.34716247558594	0.504151611328125	-2.86264709472656	0.0852220739098429	0.969430211968949	-0.230091856093048	0.315469324880017	-0.245304775217061	-0.916681336297109	-0.945101213192667	0.00553456209162162	-0.326730876172122
477	0.0001	-9.41182800292969	0.398770751953125	-2.89198608398438	0.0851184866038173	0.969544548116713	-0.229648018618569	0.314781240111153	-0.244847089584619	-0.917040170110353	-0.945339946322147	0.00576818334487811	-0.326035448913979
478	0.0001	-9.18430114746094	0.452059936523438	-2.58542358398438	0.0852349874509293	0.969585866769044	-0.229430259285825	0.315191542069072	-0.244681686224526	-0.916943381149809	-0.945192725703261	0.00584118036391018	-0.326460704970133
479	0.0001	-9.33698364257813	0.61072998046875	-2.77582763671875	0.0856069948154001	0.969610051917698	-0.229189418732271	0.315392164469628	-0.244576775531869	-0.916902384914336	-0.945092178059812	0.00620871086408281	-0.326744895720755
480	0.0001	-9.41961181640625	0.523910522460938	-2.72613098144531	0.0854792126858135	0.969746809470225	-0.228657887948204	0.315943158465743	-0.244035975205408	-0.916856784576651	-0.944919692258186	0.00612930076479673	-0.327244872923672
481	0.0001	-9.38608154296875	0.395776977539063	-2.71235961914063	0.0853557082826129	0.969858734960048	-0.228228914218313	0.31635359632448	-0.243592611188451	-0.916833159231798	-0.94479352514512	0.00605590588502125	-0.327610318591723
482	0.0001	-9.45014831542969	0.554447021484375	-2.98479309082031	0.0852952404150055	0.969893587227903	-0.228103378792897	0.316049883753733	-0.243452163247369	-0.916975198786439	-0.944900625961163	0.00612157368375815	-0.327300066290607
483	0.0001	-9.20346130371094	0.556842041015625	-2.80935791015625	0.0851738496817855	0.969970855302796	-0.22782000613104	0.316039799298925	-0.243144433364344	-0.917060319599004	-0.944914948865494	0.00610936879672203	-0.32725894185404
484	0.0001	-9.41901306152344	0.546663208007813	-2.71894592285156	0.0850078318370242	0.969909285850361	-0.2281439145531	0.316062038620374	-0.243396451399593	-0.916985798793645	-0.944922460453503	0.00584334384830398	-0.327242110773001
485	0.0001	-9.25974426269531	0.507744140625	-2.72613098144531	0.0850850506078507	0.969844684801758	-0.228389626570121	0.316053325904358	-0.243653985045775	-0.916920405900156	-0.944918424705463	0.00583291805984465	-0.327253949890683
486	0.0001	-9.36093383789063	0.69216064453125	-2.82073425292969	0.0851974967755106	0.969767243863585	-0.228676363606766	0.315826325896193	-0.243960484073275	-0.916917124980031	-0.944984189504829	0.00589702806166986	-0.327062848159098
487	0.0001	-9.28608947753906	0.569415893554688	-2.7973828125	0.0851311776128296	0.96978271809564	-0.228635435314137	0.315617157234132	-0.243898783513651	-0.917005558031142	-0.945060047117483	0.00590449689586486	-0.326843455278989
488	0.0001	-9.39147033691406	0.661025390625	-2.95725036621094	0.0849601003252506	0.969897047561653	-0.228213712304742	0.315217773814884	-0.243441555238	-0.917264391685676	-0.945208726379477	0.00599385639566363	-0.326411607118368
489	0.0001	-9.32440979003906	0.592168579101563	-2.92252258300781	0.0846877988937264	0.97003367399374	-0.227733721782132	0.314877446070605	-0.242896543888653	-0.917525728752606	-0.945346587593454	0.00599502169750876	-0.326012099530459
490	0.0001	-9.33818115234375	0.568218383789063	-2.86085083007813	0.0845025590504569	0.97016248525443	-0.227253316188944	0.314310718513836	-0.24237808697825	-0.917857088647291	-0.94555173826779	0.00613311973729919	-0.325414036422905
491	0.0001	-9.41901306152344	0.67779052734375	-2.8883935546875	0.0844946815199105	0.970356954348342	-0.226424446433372	0.314049854591778	-0.241589554179844	-0.918154222416946	-0.945639115955834	0.00647058413085622	-0.325153492854181
492	0.0001	-9.35614379882812	0.67300048828125	-2.76624755859375	0.0838050622265648	0.97080733445677	-0.224743922965991	0.312945335273109	-0.239767449855983	-0.919008589252767	-0.94606655615554	0.00668500968588942	-0.323903352822253
493	0.0001	-9.22501647949219	0.565224609375	-2.83929565429688	0.0835550440325763	0.971060022532979	-0.223743127838522	0.31284569092686	-0.23873829920181	-0.919310392719849	-0.9461216244676	0.00681594692453297	-0.323739732782852
494	0.0001	-9.43877197265625	0.632883911132813	-2.75307495117188	0.0835578284910412	0.971336467616174	-0.222538886437392	0.31297480973226	-0.237600098545123	-0.91956128759556	-0.946078674197298	0.00718747871513886	-0.323857194421865
495	0.0001	-9.32081726074219	0.563428344726563	-2.81833923339844	0.0831681916074795	0.971597123242059	-0.221544762999485	0.312778687961091	-0.236531211097993	-0.919903515882973	-0.946177860796838	0.00721223157371931	-0.323566746520168
496	0.0001	-9.3645263671875	0.484392700195312	-2.749482421875	0.0827547319205382	0.971768191982603	-0.220948490367376	0.312571872079383	-0.235831268197324	-0.920153485960485	-0.946282452087932	0.00708477178916428	-0.32326355637335
497	0.0001	-9.38907531738281	0.484991455078125	-2.83151184082031	0.0824848025518571	0.971936071014154	-0.220310079682138	0.312101282248717	-0.235135920788861	-0.920491112598857	-0.946461328827907	0.00716746931234374	-0.322737634026416
498	0.0001	-9.37829772949219	0.562230834960938	-2.94347900390625	0.0822295846582395	0.972065364189469	-0.219834535844867	0.311707965021992	-0.234600164254255	-0.920761047978098	-0.946613141652271	0.00718962273496687	-0.322291590607243
499	0.0001	-9.42619812011719	0.53887939453125	-2.74529113769531	0.0818125836562359	0.972165948532664	-0.219545142667917	0.311159023176435	-0.234187541397207	-0.92105171285342	-0.946829849260879	0.00704016817385983	-0.321657694732623
500	0.0001	-9.29926208496094	0.429906005859375	-2.71714965820312	0.0816847146565655	0.972208089395187	-0.219406103620743	0.311034521459767	-0.234013740359773	-0.921137935264379	-0.946881795078863	0.00700001695637859	-0.321505623451349
501	0.0001	-9.38727905273438	0.50534912109375	-2.6872119140625	0.0816133435590111	0.972260142424258	-0.219201910589944	0.31097737222404	-0.233796890159344	-0.921212292642934	-0.946906719860911	0.00701638118850217	-0.321431850128869
502	0.0001	-9.40045166015625	0.528700561523437	-2.70277954101563	0.0815115621326137	0.972287551252587	-0.219118193945527	0.310672805219381	-0.233682586416826	-0.921344049149211	-0.947015455700604	0.00702612872007835	-0.321111133689548
503	0.0001	-9.41122924804688	0.522713012695313	-2.70457580566406	0.0813165585492084	0.972309280348675	-0.219094227796069	0.310515353496605	-0.233596081180004	-0.921419061068428	-0.947083857189316	0.00689450543456538	-0.320912189307637
504	0.0001	-9.37769897460938	0.58198974609375	-2.66386047363281	0.0812445464605452	0.972338118536731	-0.218992938038812	0.31025651244126	-0.23347508573336	-0.921536912353264	-0.947174862503332	0.00692586328560552	-0.320642811021146
505	0.0001	-9.29626831054687	0.587977294921875	-2.73331604003906	0.0811456227088644	0.972450581440705	-0.218529756717081	0.310097325268878	-0.233003185962352	-0.921709913254968	-0.947235470607113	0.00702723181838233	-0.320461512878992
506	0.0001	-9.44954956054688	0.54366943359375	-2.75546997070313	0.0810387299400194	0.97255292704124	-0.218113567558795	0.310035003428817	-0.232573970168955	-0.92183927289346	-0.947265021468967	0.00708184321815408	-0.320372949229537
507	0.0001	-9.33638488769531	0.580792236328125	-2.74289611816406	0.0808942372390944	0.972715367323005	-0.217441800386165	0.309859377372547	-0.231889574779925	-0.922070708439805	-0.947334834488737	0.00721382575732676	-0.320163508354935
508	0.0001	-9.474697265625	0.571212158203125	-2.81235168457031	0.0796635127473252	0.973022623813439	-0.216519510169332	0.309484524442759	-0.230618658031334	-0.922515237650992	-0.9475616359199	0.00648136675687661	-0.319507336406798
509	0.0001	-9.14119079589844	0.44068359375	-2.66984802246094	0.0792889228891192	0.97324102474829	-0.21567376858112	0.309299597069085	-0.229695817128992	-0.92280745058021	-0.94765343135557	0.00646059907004704	-0.319235390738043
510	0.0001	-9.34596496582031	0.426912231445313	-2.75127868652344	0.0791459759712148	0.97340417650358	-0.214988891929213	0.309442027242145	-0.229001750556812	-0.92293219145189	-0.94761888239093	0.00651977049459362	-0.319336728750174
511	0.0001	-9.33398986816406	0.448467407226563	-2.72193969726563	0.0792390410999008	0.973504195906914	-0.214501176959946	0.309600120469734	-0.228570183379861	-0.922986151940983	-0.947559465031454	0.00672694740059149	-0.31950869848562
512	0.0001	-9.45793212890625	0.516126708984375	-2.77522888183594	0.0792293212694918	0.97371778346473	-0.21353311877952	0.30968166604059	-0.227649845454517	-0.923186229090783	-0.947533630205018	0.00701612635771948	-0.319579088179174
513	0.0001	-9.36931640625	0.459244995117188	-2.85306701660156	0.0791121673378959	0.973948098171426	-0.212523803484136	0.309527360245046	-0.22665425260848	-0.923482898073497	-0.947593836112728	0.00727680168439415	-0.319394693002892
514	0.0001	-9.38668029785156	0.513132934570313	-2.8404931640625	0.0789233206140815	0.974131625944703	-0.211751469410665	0.309422378158214	-0.225860762850847	-0.923712459426281	-0.947643868422184	0.00738181134697774	-0.319243805739556
515	0.0001	-9.24357788085937	0.41912841796875	-2.81115417480469	0.078823719018324	0.974265089587661	-0.211173759096311	0.309149191044464	-0.22527896772545	-0.923945974815146	-0.947741314387356	0.00754466111249735	-0.318950590361617
516	0.0001	-9.37530395507813	0.53887939453125	-2.74588989257813	0.0787964034417381	0.974357621152777	-0.210756620076686	0.309199377163429	-0.224875058183489	-0.924027571757856	-0.947727213899862	0.00764423367474099	-0.318990115403489
517	0.0001	-9.28129943847656	0.425115966796875	-2.89438110351563	0.0789981865382545	0.974361446336344	-0.210663377018919	0.309711830943882	-0.224855263018417	-0.923860753829443	-0.947543069362578	0.0077383839570398	-0.319534425557995
