// Start Time: Unknown
// Update Rate: 100.0Hz
// Filter Profile: human (46.1)
// Option Flags: AHS Disabled ICC Disabled 
// Firmware Version: 4.0.2
PacketCounter	SampleTimeFine	Acc_X	Acc_Y	Acc_Z	Mat[1][1]	Mat[2][1]	Mat[3][1]	Mat[1][2]	Mat[2][2]	Mat[3][2]	Mat[1][3]	Mat[2][3]	Mat[3][3]
1	9.141516	0.0383203125	0.317938842773438	9.01904479980469	0.992523738329655	-0.120556151068057	0.0190484459151474	0.121180273356048	0.991978563942153	-0.0359704048992906	-0.0145591964572196	0.0380097766228807	0.999171299967928
2	9.141516	0.0233514404296875	0.259859619140625	9.0004833984375	0.992328842734359	-0.120480301660335	0.0277121776358981	0.121443663694739	0.991938188309261	-0.0361948493868993	-0.0231280009055732	0.039282661386109	0.998960443705624
3	9.141516	0.0688568115234375	0.36404296875	9.01724853515625	0.992221815315521	-0.120471690106929	0.0313439163914238	0.121589927417153	0.991904757553797	-0.0366175025477711	-0.026678807369597	0.0401437893692727	0.998837683216053
4	9.141516	0.034727783203125	0.348475341796875	8.91665771484375	0.992165556561761	-0.120706259221147	0.0322103610244845	0.1218697028162	0.991856384373865	-0.0369957877642197	-0.0274824290771636	0.0406314134831842	0.998796177570968
5	9.141516	0.0963995361328125	0.317340087890625	9.04778503417969	0.992122034608364	-0.121016992324312	0.0323845026723984	0.122182978662419	0.991823818552851	-0.0368352097377043	-0.027662034808381	0.0405018582292117	0.998796481426642
6	9.141516	0.128732299804688	0.345481567382812	9.129814453125	0.992089837639684	-0.121232907306859	0.0325628045166902	0.122416269623973	0.991781364010724	-0.0372019210845158	-0.0277850856291013	0.0408938649060495	0.998777092663638
7	9.141516	0.106578369140625	0.267643432617188	9.04419250488281	0.992072046190288	-0.121610842687856	0.031683719929393	0.122765585895275	0.991727774830475	-0.037478414448639	-0.0268638435002251	0.0410709577505027	0.998795029193604
8	9.141516	0.123343505859375	0.292791137695313	9.28668823242188	0.992028885049017	-0.121859577851238	0.0320770091237013	0.123028388513714	0.991698009928965	-0.0374041805504289	-0.0272526484607011	0.0410524102684427	0.99878525858316
9	9.141516	0.010777587890625	0.333506469726563	9.11963562011719	0.992009183972781	-0.122001772754007	0.0321457051336083	0.123183413022434	0.991664819684095	-0.0377721081891832	-0.0272695007252013	0.0414300958940539	0.99876920331196
10	9.141516	0.141904907226563	0.309556274414063	8.95916931152344	0.991979486526039	-0.122376537698156	0.03163354758081	0.123543460440951	0.991610548701229	-0.0380201668423788	-0.0267153830930969	0.041623343516094	0.998776143878462
11	9.141516	0.0928070068359375	0.29458740234375	8.93402160644531	0.991956600731082	-0.122596084819833	0.0315008293999713	0.123769497328284	0.9915648007648	-0.0384754131279532	-0.0265181786165959	0.042064781838387	0.99876290496381
12	9.141516	0.06466552734375	0.34248779296875	9.18190612792969	0.991916989294719	-0.122925297718663	0.0314651796320832	0.124101730020983	0.99151644570778	-0.0386509831286532	-0.0264470594641512	0.0422434500460172	0.998757249772891
13	9.141516	0.106578369140625	0.310753784179688	8.98611328125	0.991879144613672	-0.12332033392669	0.0311104117726041	0.124486795365748	0.991460410733533	-0.0388496039575685	-0.0260537955011884	0.0424069474060933	0.998760657290664
14	9.141516	0.099393310546875	0.286803588867188	9.05616760253906	0.991825635814453	-0.123762951451977	0.0310586540138348	0.124927035743249	0.991405024837318	-0.0388498708842365	-0.0259835309698382	0.0424123634711909	0.998762257768648
15	9.141516	0.139509887695313	0.283211059570313	9.17591857910156	0.991738333372825	-0.12441985068804	0.0312214489358981	0.125592878384541	0.99131743169626	-0.0389381370152257	-0.0261056893794656	0.042537634747318	0.998753744729964
16	9.141516	0.013172607421875	0.283809814453125	9.07293273925781	0.991669249018238	-0.124877391632231	0.0315869848313323	0.126060860069137	0.991265336105618	-0.0387516837575552	-0.0264718739463931	0.0424107356048755	0.998749502826019
17	9.141516	-0.114362182617188	0.473615112304688	9.06455017089844	0.991604045193892	-0.125267515946283	0.0320853082228836	0.126467961729715	0.991219315085489	-0.0386021250371851	-0.0269679849273375	0.0423357868723709	0.998739409925761
18	9.141516	-0.0431103515625	0.449066162109375	8.84660339355469	0.991375203263978	-0.126496154242694	0.0342626518984688	0.127762500286781	0.991087950054495	-0.0377017078824006	-0.029188180377979	0.041754020388318	0.998701482880462
19	9.141516	-0.0245489501953125	-0.163460083007813	8.919052734375	0.991101750642138	-0.128163053578045	0.0359381631645439	0.12947008756123	0.990901763964852	-0.0367585445608555	-0.0309001019573994	0.0410843749970241	0.998677754748811
20	9.141516	0.230520629882813	0.0892144775390625	9.60163330078125	0.990384831159919	-0.132599500937507	0.0394367665949195	0.133985396160936	0.990370207725905	-0.0348534828179983	-0.0344354442970479	0.0398023114915651	0.998614027628289
21	9.141516	-1.04782104492188	0.121547241210938	9.42320434570312	0.989354045572146	-0.137076124990773	0.0488744152654859	0.138649952542113	0.989874814446237	-0.0303980654828181	-0.0442127037184907	0.0368508844200762	0.998342250506989
22	9.141516	-0.729283447265625	-0.39038818359375	9.27171936035156	0.988460417240147	-0.141470661957742	0.0541484566231958	0.142918443210022	0.989447041159526	-0.0238510236904754	-0.0502028100793146	0.0313146059515045	0.998248001908465
23	9.141516	-0.89334228515625	-0.21076171875	10.6189178466797	0.987692661347589	-0.146179119107964	0.0556315724830666	0.147277279133486	0.988963251517352	-0.0161582857774496	-0.0526555768286344	0.0241526869115674	0.998320608794488
24	9.141516	-2.30161376953125	-0.190404052734375	9.37530395507813	0.987522595639873	-0.146423370051864	0.0579596394342088	0.14711933941751	0.989087156825178	-0.00790545209591608	-0.0561695920409265	0.0163337964399036	0.998287625899378
25	9.141516	-1.35019226074219	-1.18912719726562	11.9451599121094	0.988140975999292	-0.145478128034333	0.0491276481707993	0.14549662232802	0.989353512883846	0.00321860770076159	-0.0490728483206856	0.00396746871698123	0.99878732208097
26	9.141516	-0.418529663085938	-0.978964233398438	11.6290173339844	0.987616737971337	-0.150528218479162	0.0442089846111109	0.149727637904413	0.988506087114802	0.0209129190824449	-0.046848834845927	-0.0140346420856886	0.998803391811975
27	9.141516	-1.3076806640625	-1.98187866210938	10.3973785400391	0.987675069083036	-0.152321784340987	0.036000443427783	0.150706119426862	0.987598797735112	0.0440031848785661	-0.0422566382845989	-0.0380353615381639	0.998382535801556
28	9.141516	-1.78189453125	-3.01473083496094	10.9045239257813	0.987270719098191	-0.156602946421167	0.0277856866668745	0.154329915331554	0.985486120469182	0.0707063193523456	-0.0384552264990837	-0.0655181160810488	0.997110110278747
29	9.141516	-2.28305236816406	-3.23088134765625	8.90647888183594	0.988004588031506	-0.153370115757866	0.0180150387485902	0.150963485974162	0.983826246086455	0.0964154728970668	-0.0325109201842	-0.0925393165300825	0.995178132278299
30	9.141516	-1.28612548828125	-4.89901245117187	6.76892395019531	0.988754197153441	-0.149318812228759	0.00830842500402612	0.147149485052858	0.981295720580016	0.124119852642622	-0.0266864508718158	-0.121501444789517	0.992232448700367
31	9.141516	-1.13164672851563	-5.33310974121094	4.01165771484375	0.989350039058117	-0.145506138095046	-0.00380315558021201	0.144445457545446	0.978246361720961	0.148894477984207	-0.0179446373657587	-0.147858106157114	0.988845776869904
32	9.141516	-0.830473022460938	-7.02758605957031	5.03852233886719	0.990079294162165	-0.139239638465128	-0.0188497838568276	0.140396113143615	0.974941701638532	0.172561901416071	-0.0056500164171347	-0.1734964019404	0.984818295843564
33	9.141516	-0.810115356445313	-6.91142761230469	3.97034362792969	0.99083000416124	-0.131600576239755	-0.0306135784775497	0.135059297337213	0.971139125565368	0.196590399050691	0.00385863403484016	-0.198922314307612	0.980007665181191
34	9.141516	-0.553848266601562	-7.57664428710938	2.3519091796875	0.991455101505931	-0.1233093419	-0.0425627524727075	0.129679881001328	0.967039175269906	0.219130924236589	0.0141389589908717	-0.222778005407825	0.97476666446138
35	9.141516	-0.003592529296875	-7.57544677734375	1.45976440429688	0.99159547734236	-0.115996171347843	-0.0573000658535437	0.126563361459781	0.961568976039056	0.243653072739096	0.0268351420748898	-0.248857373914948	0.968168313155299
36	9.141516	-0.144898681640625	-7.98200134277344	-0.395776977539063	0.991700877957963	-0.108022006597601	-0.0697181091828616	0.122774749931228	0.956620631875985	0.264203193486599	0.0381540225497913	-0.270570162360562	0.961943895351205
37	9.141516	0.0952020263671875	-8.18497924804688	0.13172607421875	0.991806089645487	-0.100541382224362	-0.0788169461635207	0.118953381032985	0.951795175179909	0.282729619327491	0.0465915623579	-0.289788500401001	0.955955988187944
38	9.141516	0.691561889648438	-8.47477661132813	-1.20409606933594	0.991573504452546	-0.092717236607394	-0.0904737492512867	0.115916119992217	0.946839086232515	0.300098646961838	0.0578397648131984	-0.308057233023776	0.949607973212151
39	9.141516	1.27834167480469	-8.75499389648438	-2.07348815917969	0.990485886990632	-0.0837162165667658	-0.109221347529351	0.114741320261296	0.940576649294623	0.319609130386469	0.0759745819144508	-0.329100534617381	0.941233605975413
40	9.141516	1.71243896484375	-8.86576354980469	-4.79063781738281	0.990239238306725	-0.0776603185529435	-0.115737313948322	0.11266571686198	0.934860805856296	0.336662605463827	0.0820529534001869	-0.346416149444526	0.934485507775447
41	9.141516	0.853824462890625	-8.77894409179688	-6.92460021972656	0.989798280832642	-0.0745353443482484	-0.121424238534297	0.112684419686802	0.931059322662226	0.347031351960606	0.0871870679664973	-0.357173655420784	0.929959888948314
42	9.141516	-1.11548034667969	-9.32860107421875	-4.00866394042969	0.989682008066043	-0.0714583318810557	-0.124190296380764	0.111252110747827	0.929449136291225	0.351777302993881	0.0902911444412927	-0.361964100225799	0.927808977852235
43	9.141516	-1.4226416015625	-9.54834411621094	-2.31598388671875	0.990363773422836	-0.067336195498996	-0.121018317073919	0.106792938848371	0.927681109557797	0.357775106990051	0.0881751921109942	-0.367251406730233	0.925932794402949
44	9.141516	0.434097290039062	-9.38668029785156	-5.23970397949219	0.990297318204391	-0.0615546067462864	-0.124588329892897	0.103059352474119	0.926734008022515	0.361307138376949	0.0932201234970562	-0.37064148278739	0.924085980746575
45	9.141516	0.214953002929687	-9.05437133789063	-5.12115051269531	0.990704920368199	-0.0577185132362372	-0.123176028463492	0.0986535631178367	0.928311009987469	0.358477535168107	0.0936548730306954	-0.367297212031135	0.925376422215177
46	9.141516	-0.12214599609375	-9.00467468261719	-3.08718017578125	0.991851139434253	-0.0550888980149223	-0.114876152958199	0.0926490939780933	0.93080791873912	0.353571440868159	0.087449771800803	-0.36133340798776	0.928326831285156
47	9.141516	-0.254470825195312	-9.05437133789063	-3.209326171875	0.99262529276146	-0.0509030796930399	-0.110017746968336	0.0862131291971434	0.934450894417732	0.345497933822965	0.0852192731972146	-0.35243496194286	0.931948106428718
48	9.141516	0.661025390625	-8.97114440917969	-0.600551147460938	0.993556968426966	-0.046213529199838	-0.103483622902921	0.0785730893907977	0.93890232292007	0.335095057616318	0.0816750886978638	-0.341067057532963	0.936484085370383
49	9.141516	1.369951171875	-9.16573974609375	1.64238464355469	0.994217251655029	-0.0419182603006369	-0.0988681746816922	0.0722216929551102	0.942358347278311	0.326718184956986	0.0794737917694842	-0.331969282868548	0.939936333829863
50	9.141516	0.532293090820313	-9.15735717773438	1.73579040527344	0.995110066340979	-0.038130361286894	-0.09111548394748	0.0654636875481841	0.945379759978175	0.319329946976794	0.0739625680966141	-0.323733200292678	0.943253069726685
51	9.141516	1.05320983886719	-9.053173828125	2.36448303222656	0.995679565266574	-0.0326589671966538	-0.0869229266201647	0.0583214608228282	0.948379499489649	0.311728940195252	0.0722551764101228	-0.315451607714102	0.946186806435458
52	9.141516	0.810714111328125	-8.9813232421875	3.37458251953125	0.996402384309925	-0.0300122996714341	-0.0792562326251346	0.0529760913068304	0.950534635130577	0.306067706834668	0.0661499984228858	-0.309165278266519	0.948704911140992
53	9.141516	-0.075443115234375	-8.32808166503906	1.753154296875	0.997302763305242	-0.0268006090159613	-0.0683295372449024	0.0461464752121541	0.952891088870687	0.299781713212017	0.0570762746613948	-0.302126298271454	0.951557669699302
54	9.141516	0.4454736328125	-7.99577270507813	0.518521728515625	0.997647895368394	-0.0244897202330542	-0.0640228902028135	0.0420051196097551	0.956505446973204	0.288674383756442	0.0541686883133139	-0.290684680562114	0.95528433970882
55	9.141516	0.37122802734375	-7.73052429199219	4.23020324707031	0.997981395515957	-0.0219637313036828	-0.059587991334178	0.0376846351794517	0.960051290596794	0.277274931601871	0.0511175358894976	-0.278960774896131	0.958941021958043
56	9.141516	-1.23163879394531	-7.38564147949219	5.37382507324219	0.998590423231474	-0.0169323032670061	-0.0503037149369824	0.0298691338487655	0.962707596252086	0.268890161518892	0.0438748387291804	-0.270013668588472	0.961856339222175
57	9.141516	-1.27055786132812	-6.04203552246094	3.34404602050781	0.998974371484252	-0.00815262196594597	-0.0445391947920539	0.0191974724590367	0.967130465647109	0.253554963407129	0.0410080744345388	-0.254149950171717	0.966295058798753
58	9.141516	-1.77830200195313	-5.11815673828125	7.65627868652344	0.999374453504679	0.00455156162995068	-0.0350711415405029	0.00385529394949215	0.971751771207976	0.235973794864442	0.0351544931806481	-0.23596139184386	0.971126347685161
59	9.141516	0.0508941650390625	-4.70022583007812	7.52335510253906	0.999503952369248	0.0204614527863004	-0.02394113924036	-0.0146902383696617	0.975326985734591	0.220275890179838	0.0278576038972275	-0.21981492180412	0.975143760712929
60	9.141516	0.05508544921875	-3.34224975585938	6.44619506835938	0.999330617044136	0.0313502615781417	-0.0188541490704367	-0.0271137195706697	0.980708566664142	0.193586036383329	0.024559398389033	-0.192945247079442	0.980902119265843
61	9.141516	1.00890197753906	-3.48175964355469	11.3625714111328	0.998854741254319	0.0451823321091439	-0.0157404808994803	-0.041631202163439	0.982878815127654	0.179488377840143	0.0235806887133256	-0.178627522063197	0.983634159370936
62	9.141516	0.5891748046875	-2.72493347167969	6.48990417480469	0.998304392671633	0.0575444852153574	-0.00877335704401035	-0.0553929004532357	0.985463619531357	0.16060224518834	0.017887597711825	-0.159843945151067	0.986980216137407
63	9.141516	3.49972229003906	-2.54470825195312	9.84472778320313	0.997631184650047	0.0680936234310234	-0.00976103794575845	-0.0660026483159486	0.98750727576746	0.143083998831492	0.0193822039259153	-0.142100804903995	0.989662412854308
64	9.141516	1.25738525390625	-0.793350219726562	7.74669067382813	0.99722501582636	0.0743170054276088	-0.00438754081353642	-0.0731997483399935	0.989561739293917	0.124134447147278	0.0135670429010636	-0.123468809137658	0.992255707223219
65	9.141516	2.2944287109375	-1.24421264648438	11.1667785644531	0.996439139251895	0.0842949719137723	-0.00184376706779408	-0.0836062797939559	0.990655219317551	0.107760040914568	0.0109101670912365	-0.107222171909317	0.994175223039224
66	9.141516	2.97581176757813	-1.7292041015625	8.86755981445313	0.996187378098153	0.0866156116044285	0.0104136230160038	-0.0872107405265255	0.991797968626175	0.0934402277705274	-0.00223482767650999	-0.0939921552864056	0.995570429597963
67	9.141516	0.305364990234375	1.87170776367188	7.73770935058594	0.995826177586307	0.0905483901779967	0.0114548273675115	-0.0911388279384971	0.993259518485669	0.071618733440453	-0.00489265529577087	-0.0723637891060917	0.997366303797339
68	9.141516	0.219743041992187	-0.186212768554688	11.7697247314453	0.99553569451307	0.0934511429387492	0.0132500880684236	-0.0940598866995203	0.993929822411056	0.0570635245669228	-0.00783700608988679	-0.0580550773435697	0.998282619968003
69	9.141516	-0.192200317382813	1.17954711914063	10.1668579101563	0.995289454694137	0.096217747209986	0.0118762997808171	-0.0966363392690076	0.994432126302848	0.0420257553112664	-0.00776655054279982	-0.042975473221739	0.999045939581376
70	9.141516	-0.233514404296875	0.977766723632813	11.9960540771484	0.995100460311209	0.0981203785106584	0.0121435254084287	-0.0984633992879969	0.994628550102181	0.0319218784266461	-0.0089461102761207	-0.0329611687074081	0.999416594052935
71	9.141516	-0.259859619140625	1.41066650390625	9.36213134765625	0.99487768472615	0.0998573222685063	0.0157132944763439	-0.100227052508809	0.994654831648913	0.0248254672236147	-0.0131502995910029	-0.0262732005442416	0.999568301094943
72	9.141516	-0.755029907226562	2.56446716308594	9.73695190429688	0.994675108956849	0.102393580711048	0.0117039416800559	-0.102568271313515	0.994605955462692	0.0154513131449284	-0.0100586948177748	-0.0165694896516356	0.999812119686117
73	9.141516	-0.472417602539063	3.30093566894531	13.8204602050781	0.994489553817091	0.103849893948938	0.0143431821950077	-0.104062499581179	0.994458110079528	0.0149687500470776	-0.0127091907532365	-0.0163788529466785	0.999785081728343
74	9.141516	-0.288001098632813	2.76205627441406	9.58546691894531	0.994242727484742	0.105749075748377	0.0172780734477218	-0.106031150692718	0.994228939008556	0.0163160019826732	-0.015452958502464	-0.0180540803223147	0.99971758825042
75	9.141516	-0.077838134765625	2.51417175292969	11.7062567138672	0.99427618138851	0.106206749756641	0.0116190115592127	-0.106442465276081	0.994075290561756	0.0220072324591229	-0.00921285566114245	-0.0231180232868199	0.999690292185473
76	9.141516	-0.79275146484375	1.49389343261719	12.8367059326172	0.993989043661501	0.107660035456615	0.0198770683546356	-0.108327971732876	0.993451841053144	0.036311018277646	-0.0158376646364148	-0.0382459968310261	0.999142838689877
77	9.141516	0.140707397460937	0.477207641601563	9.71300170898438	0.993697558246705	0.109666459017525	0.0232041052638247	-0.11075248352328	0.99247058530439	0.0523070234193036	-0.017293065892511	-0.0545472737368194	0.998361429944045
78	9.141516	0.183817749023438	-0.640068969726563	10.5931713867188	0.994107149864856	0.106615056467107	0.01960113063291	-0.107768070356123	0.991528986255373	0.0725004305305167	-0.0117054516910078	-0.0741855723837739	0.997175753441088
79	9.141516	-1.24600891113281	-0.801732788085938	9.19747375488281	0.99395803644812	0.107843485463855	0.0204255825670782	-0.10926489624958	0.989852749380473	0.0908444659376014	-0.0104213352199069	-0.0925273861455455	0.995655602397389
80	9.141516	0.349074096679688	-2.30999633789063	9.19807250976563	0.993865420573715	0.109143478933696	0.0178669189868534	-0.110460984976277	0.987597920840681	0.111573821074817	-0.00546777705321401	-0.112862960077319	0.993595519140803
81	9.141516	-0.32332763671875	-2.73690856933594	8.53405334472656	0.993878610219962	0.109629213603924	0.0136654188308408	-0.110472760094778	0.985040335425998	0.132254704494318	0.00103799050026324	-0.132954778433959	0.991121561397642
82	9.141516	-0.0820294189453125	-3.228486328125	8.35682189941406	0.99355521178847	0.112961361084463	0.00936867279369963	-0.113054198831025	0.981619380020405	0.153760010714853	0.00817246931134598	-0.153828227807195	0.988063807188105
83	9.141516	0.951421508789063	-4.21583312988281	9.20705383300781	0.993534327707617	0.113401449878764	0.0054452577505504	-0.112545031562589	0.977452011747841	0.178664995454276	0.0149383913843366	-0.178122642848951	0.983894897114196
84	9.141516	0.739462280273438	-4.780458984375	6.03664672851562	0.993185824047867	0.116299386905155	0.00750809668583323	-0.115403118245426	0.972458723598402	0.202499756040838	0.0162492833562342	-0.201986344842545	0.979253530648503
85	9.141516	1.05620361328125	-5.52411254882812	4.97325805664063	0.992927283669416	0.118706420291944	0.00204820075894479	-0.116075692395428	0.967009868243789	0.226756142924626	0.0249367796597468	-0.225390107370762	0.973949411683994
86	9.141516	0.751437377929688	-5.92168579101563	3.80448852539063	0.992713494902329	0.120495520557254	-0.000864039605770903	-0.116410673184399	0.960862671370891	0.25137915970651	0.0311202861098524	-0.249446900745694	0.967888305281559
87	9.141516	1.4944921875	-6.74856628417969	1.85673889160156	0.992569109536851	0.121679680569586	-0.000786212253390532	-0.116843365516262	0.954882336078089	0.273033609983983	0.0339733826407826	-0.270912863449737	0.96200417342619
88	9.141516	0.667012939453125	-7.61915588378906	1.96511352539063	0.992184706780251	0.124382359020658	-0.00992655004746753	-0.116080116320831	0.949279827423474	0.292221176237797	0.0457702329722193	-0.288785106976304	0.956299245927944
89	9.141516	1.76692565917969	-8.765771484375	0.956810302734375	0.991821724796215	0.126786601655221	-0.0146568708455604	-0.116018815957407	0.943478392293133	0.310464422470286	0.0531911700012759	-0.306224886181197	0.950471997755436
90	9.141516	1.56454650878906	-8.82205444335938	1.31606323242188	0.991615851671997	0.127704622626674	-0.0197365668899383	-0.114311851729031	0.938136648069607	0.326852306253152	0.0602561471312451	-0.321855804528213	0.944869323147067
91	9.141516	0.149089965820313	-8.401728515625	1.32324829101563	0.991252242621564	0.130426489679272	-0.020197086118168	-0.115557227622054	0.931608162370982	0.344605221881602	0.0637614196989588	-0.33925677973138	0.938530403750602
92	9.141516	1.18493591308594	-8.82624572753906	0.594563598632812	0.9906127535547	0.134444768990599	-0.024717940566338	-0.11625306603229	0.92369233319148	0.36507218223438	0.0719138173988043	-0.358771623312582	0.930651022227337
93	9.141516	0.345481567382812	-8.60470642089844	1.159189453125	0.989840055343437	0.139932238346211	-0.0252117732244454	-0.119135289907849	0.913019063983463	0.390131992409407	0.0776108725390617	-0.383164661045587	0.920413708605834
94	9.141516	1.23403381347656	-8.75978393554688	-2.98000305175781	0.988071162197249	0.151471416335946	-0.0277810811049592	-0.126459472902613	0.90101774591866	0.414939782682802	0.0878827636534676	-0.406476852444072	0.909424646839852
95	9.141516	2.77223510742188	-8.65440307617188	-5.03612731933594	0.986062146334262	0.162587184694059	-0.0353107765410006	-0.131435176929744	0.8913521600204	0.433838819254818	0.102010969175454	-0.423150959115335	0.900298299436169
96	9.141516	3.32308959960938	-8.04008056640625	-5.70194274902344	0.984758593045416	0.168564693173992	-0.0428539104209935	-0.132010713252822	0.884812699514114	0.446855299134997	0.113241710556199	-0.43438742039072	0.893579254457377
97	9.141516	3.57516540527344	-8.11672119140625	-5.93066711425781	0.984355463532152	0.170196067805677	-0.0455809161589302	-0.130864120127537	0.879441947494901	0.4576641159733	0.117978402589828	-0.444539266533185	0.887956044538518
98	9.141516	2.22557189941406	-8.79211669921875	-5.85043395996094	0.984334992148871	0.169868063157807	-0.047217203965262	-0.12895336409745	0.876282723636667	0.464219364249118	0.120231664378534	-0.450858546968914	0.884460806088007
99	9.141516	2.35310668945313	-8.32628540039063	-7.32217346191406	0.9844453817669	0.169379269285474	-0.0466685488754729	-0.128510825574016	0.875341684191887	0.466113616649843	0.119800909963608	-0.452865983545276	0.883493148201762
100	9.141516	2.22856567382812	-8.1670166015625	-6.79467041015625	0.984735946121546	0.168341220171811	-0.04423064556582	-0.128982858950701	0.87640943762968	0.463971895410198	0.116869750205119	-0.451184808282253	0.884745008611125
101	9.141516	2.79319152832031	-8.16821411132813	-6.8593359375	0.985074309969551	0.166945011017073	-0.041928118661867	-0.129900976162014	0.880831025953911	0.455260848425534	0.112935115133292	-0.443019262576122	0.889370334987816
102	9.141516	2.941083984375	-8.0328955078125	-5.16186584472656	0.985396629533474	0.165392353757295	-0.0404827348716897	-0.130691133354986	0.887036311072896	0.44281645238245	0.109148111144714	-0.431059105177946	0.895697905365827
103	9.141516	1.85314636230469	-8.44424011230469	-3.87933288574219	0.986188603616246	0.16221810190285	-0.0334264193786396	-0.132855601243948	0.895297517178834	0.425196125278119	0.0989010986569374	-0.414882686007085	0.90448379174864
104	9.141516	0.775387573242188	-8.14606018066406	-0.533490600585938	0.986372053935253	0.162237350959042	-0.0273717586088991	-0.137258637787143	0.903141243561877	0.406811947379038	0.0907206567897811	-0.397510925801166	0.913101761196599
105	9.141516	1.86991149902344	-8.36759948730469	1.16876953125	0.986326022104702	0.1631213457651	-0.0235032907248705	-0.141113778982232	0.909571557237451	0.390853532216345	0.085134478916998	-0.382192371483815	0.920152765403175
106	9.141516	1.56454650878906	-7.85985534667969	1.9543359375	0.986171947076416	0.164966190437548	-0.0158444568235702	-0.147008837433143	0.914926117904484	0.375897061032386	0.0765068135270776	-0.368369861401218	0.92652595899693
107	9.141516	1.45078308105469	-7.45749206542969	4.32121398925781	0.985942604051579	0.166479807285118	-0.0142005380990016	-0.150327641702937	0.920950923258002	0.359514946963638	0.0729299777596619	-0.352326369601459	0.933031268301032
108	9.141516	0.986149291992188	-7.19104614257813	5.43849060058594	0.985622760722765	0.168812069330333	-0.00708934366819177	-0.155848742568969	0.92453971689282	0.347760666734202	0.0652605775710429	-0.341655963121026	0.937556536897343
109	9.141516	1.21547241210937	-6.72401733398438	5.1301318359375	0.985037493691585	0.172238874919054	-0.00590812901174768	-0.160502705885363	0.929325414818609	0.332555491272804	0.0627695581096254	-0.326631356943632	0.943065182919974
110	9.141516	1.31606323242188	-6.37194946289063	5.39957153320313	0.984467594474041	0.175565528303626	-0.000548362986386532	-0.166033216178342	0.932022172022921	0.322129852673037	0.0570659842285397	-0.317035354699039	0.946695335002176
111	9.141516	1.84715881347656	-5.7240966796875	5.32532592773437	0.984008496341742	0.178121454630406	0.000162872997555189	-0.169513639472026	0.936174154208097	0.307966035506681	0.0547028807304797	-0.303068804717844	0.951397337838763
112	9.141516	0.839454345703125	-5.15048950195313	7.27008178710938	0.983602660648886	0.180316503769419	0.00342993189502903	-0.173220366226017	0.939258189240395	0.29629167836674	0.0502046879181209	-0.292027417228636	0.955091344792641
113	9.141516	0.228724365234375	-4.67926940917969	5.93066711425781	0.982894412406699	0.184072766500063	0.00598253229866147	-0.178361622295607	0.943299931853859	0.279950656824707	0.0458879695755929	-0.276228990508815	0.959995749496169
114	9.141516	0.919088745117188	-4.08769958496094	9.02802612304687	0.981930024286353	0.189153804390827	0.00585369024463951	-0.183857706786224	0.946196356432665	0.266287060761242	0.044830470221877	-0.262551506105044	0.963875995956772
115	9.141516	1.40946899414063	-3.60630065917969	8.36999450683594	0.980944431856523	0.194184867296257	0.00634499194794678	-0.189416020057345	0.948565693138926	0.253662565518655	0.043238789938203	-0.250030724338041	0.967271959653373
116	9.141516	1.18553466796875	-2.69918701171875	8.1286962890625	0.980234972793347	0.197722064538628	0.00673671339820548	-0.193691348038761	0.952204410005853	0.236199964564632	0.040287216430953	-0.232836308938251	0.971681117153286
117	9.141516	0.729283447265625	-1.66274230957031	7.98559387207031	0.979296122415127	0.202312500130858	0.00698261509021157	-0.198983511967842	0.955695551994507	0.216913747519284	0.0372111083903751	-0.213812217117539	0.976165800068637
118	9.141516	1.21427490234375	-0.817899169921875	9.2783056640625	0.978129968034037	0.207961163211622	0.00373098236426437	-0.204562778861185	0.958591251839187	0.198133493892301	0.0376275848058756	-0.194563528167664	0.980167943960945
119	9.141516	0.628692626953125	-0.28021728515625	9.97465759277344	0.977376540719561	0.211389618360373	0.00703753511686699	-0.209069252917871	0.960541039920323	0.183441974785349	0.0320178877415168	-0.180763214947736	0.983005348401692
120	9.141516	1.14302307128906	0.214354248046875	7.55508911132813	0.976599243142569	0.214953813498041	0.00698400715999268	-0.213084061063165	0.962683671165745	0.166839240563105	0.0291393413479268	-0.164423256668555	0.985959376167353
121	9.141516	0.202379150390625	0.404159545898438	11.9691101074219	0.975681511652629	0.219119874535272	0.00566289704019806	-0.217350023367781	0.963811671602159	0.154356823708825	0.0283646815823165	-0.151833929894141	0.987998938547828
122	9.141516	0.504151611328125	1.03045715332031	10.1315313720703	0.974616617688679	0.223865024734181	0.00262663774534454	-0.22199322803058	0.964814410416513	0.140897693952741	0.029007847794067	-0.137904329712311	0.990020676861324
123	9.141516	0.104782104492188	1.13044921875	11.4206506347656	0.973984171261017	0.226573302583858	0.00440144172209774	-0.225185309666268	0.965473303009106	0.130968994373458	0.0254246031138453	-0.12855286746289	0.991376694210416
124	9.141516	0.345481567382812	1.26516906738281	9.02503234863281	0.973322483377782	0.229284098429794	0.0084938541630774	-0.228606252459961	0.965959371636565	0.121085398309236	0.0195582383542069	-0.119796888752296	0.992605752934039
125	9.141516	0.973575439453125	1.64837219238281	8.54662719726563	0.973040487169942	0.230463626390769	0.00887283713920289	-0.229991125054587	0.96673706516633	0.111908575318056	0.017213155556372	-0.110932248442047	0.993678893572458
126	9.141516	-0.794547729492188	2.67224304199219	9.04958129882812	0.972794055878722	0.231557129381987	0.00728153001775576	-0.231090695628647	0.967651109412793	0.101234484470749	0.0163955860186079	-0.100162998580135	0.994835945507872
127	9.141516	-0.767603759765625	2.76026000976563	9.92615844726563	0.972226730281976	0.233943162450597	0.0067662151777804	-0.23355680535659	0.967951167146412	0.0923133613921779	0.0150467138220347	-0.0913298131089332	0.995707015964358
128	9.141516	-0.365839233398437	3.20214111328125	11.5811169433594	0.971728681286647	0.236031262126985	0.00571080236540701	-0.235577987729075	0.967687063389538	0.089915288166434	0.0156965493798563	-0.0887186037270388	0.995933043778693
129	9.141516	-0.248483276367188	3.21830749511719	12.5738525390625	0.971272013335891	0.237942068370021	0.0037746801509364	-0.237277546335052	0.967104853545127	0.09169279281752	0.0181670612830735	-0.0899542903326772	0.995780188362413
130	9.141516	-0.360450439453125	3.01413208007813	11.7822985839844	0.97090823476283	0.239348446109077	0.00703711694482364	-0.238859021851505	0.966019320765891	0.0987574786390839	0.0168394581227264	-0.0975653281251962	0.995086649190891
131	9.141516	0.299976196289063	2.61117004394531	11.0380462646484	0.970492682577218	0.240948721032062	0.00936306024162052	-0.240501904464174	0.964430354409224	0.109694691955464	0.017400776223494	-0.108709729680062	0.993921228095923
132	9.141516	0.104183349609375	1.55915771484375	10.3973785400391	0.970226052135459	0.241822892146402	0.0135313189154731	-0.241616452355493	0.962492322729988	0.12340996166023	0.0168195632757994	-0.12300494916784	0.992263515791762
133	9.141516	0.375419311523437	0.93884765625	9.25555297851563	0.969939079609554	0.242745921242443	0.0171055419770647	-0.242768947102501	0.960392387067802	0.136783409757735	0.0167755825208823	-0.136824268981664	0.990453279690021
134	9.141516	0.0401165771484375	0.315543823242187	10.3363055419922	0.969844028032384	0.242911189424209	0.0199177142874922	-0.243070743508178	0.95800947795671	0.152100143969342	0.0178654678165351	-0.152354829912376	0.988164374414534
135	9.141516	0.581390991210938	-0.491577758789063	8.80528930664063	0.969439629240019	0.244233085869553	0.0231733688878337	-0.244620104456648	0.955131920650849	0.166985085110736	0.0186496582969978	-0.167550630916319	0.985687058008245
136	9.141516	0.584384765625	-1.33881591796875	7.9562548828125	0.969262148984365	0.24511602458371	0.0211901165284565	-0.244822431301211	0.952395962412345	0.181669777102376	0.0243487921255941	-0.181273454407812	0.983131258301293
137	9.141516	0.192200317382813	-1.88667663574219	9.51182006835938	0.968936590165737	0.246255030542865	0.0228110536873719	-0.24581861503128	0.948878697909533	0.197996023085348	0.0271125937914303	-0.197452973099527	0.979937360585899
138	9.141516	0.832868041992188	-2.33454528808594	7.55568786621094	0.968633731799452	0.247211279969136	0.0252046955206559	-0.246803925946472	0.945282968291867	0.213372753637214	0.0289225821405365	-0.212900664426723	0.976645683617649
139	9.141516	0.486787719726563	-3.24046142578125	7.893984375	0.968784574012669	0.246650793919084	0.024896485980525	-0.245642845178157	0.941561074459853	0.230482831626974	0.0334072113154139	-0.229403855506166	0.972757847211234
140	9.141516	1.17535583496094	-3.97034362792969	6.25519226074219	0.968713200544437	0.24683119447004	0.0258669002288283	-0.245486148723806	0.937646018297836	0.246082293460882	0.0364867904276081	-0.244733131812404	0.968903714678391
141	9.141516	1.36396362304688	-4.6319677734375	5.58398803710937	0.969163316454466	0.245203664153199	0.0244464542383137	-0.243015536603207	0.934629321475094	0.259637209214052	0.040815622112569	-0.257571726951642	0.965396752877652
142	9.141516	0.501157836914063	-5.24150024414063	6.48990417480469	0.96906936690638	0.245403913538081	0.0261051976407567	-0.243012366669765	0.930454269521286	0.274225895887259	0.0430064154426804	-0.272087801177863	0.961310915719242
143	9.141516	1.33941467285156	-6.03724548339844	4.42060729980469	0.969110225702247	0.245306599625765	0.0254959333891856	-0.242161500726856	0.926875726110572	0.28680863988506	0.0467244904205264	-0.284123319224322	0.957648558432527
144	9.141516	0.307760009765625	-6.39110961914063	7.1658984375	0.969134136456617	0.245071376899421	0.0268150289783375	-0.241645165918147	0.922726644268838	0.300305101096802	0.0488532429105601	-0.297515646951536	0.953466203111642
145	9.141516	1.07835754394531	-6.77491149902344	5.13671813964844	0.969049975500407	0.245001049491615	0.0302759100716873	-0.242016665293824	0.918662117104889	0.312230441047027	0.0486834540960181	-0.309894176041388	0.949523839065092
146	9.141516	-0.1868115234375	-6.89526123046875	5.88216796875	0.969423435982447	0.243648774536558	0.0292143190031842	-0.239760584241727	0.915070216897006	0.324285923826695	0.0522787147130878	-0.321374816709244	0.945507886362164
147	9.141516	-0.226329345703125	-7.12937438964844	5.84265014648438	0.969122344475617	0.244428273837755	0.0325069282888853	-0.240740098527759	0.909388446061628	0.339200323010551	0.0533487244358116	-0.336552333401973	0.940152349612954
148	9.141516	0.717907104492188	-7.71435791015625	3.41589660644531	0.968770129759826	0.24602257980641	0.0309406837437228	-0.240697390001903	0.903063619288577	0.355725829767376	0.0595751804982762	-0.352063900084651	0.934078052480511
149	9.141516	0.904119873046875	-7.85686157226563	3.64402221679688	0.968400222716541	0.247432541829854	0.0312753239179299	-0.240878059418683	0.895418706345777	0.374437045198182	0.0646433997655081	-0.370138457296285	0.926724745162814
150	9.141516	1.33282836914063	-8.22689208984375	2.270478515625	0.968214698426584	0.248317588987111	0.0299778710109395	-0.23990888202584	0.888093944963929	0.392087838683526	0.0707391410453353	-0.38681716600745	0.919439206258975
151	9.141516	0.937650146484375	-8.46579528808594	1.71842651367188	0.968004882682191	0.249299459097141	0.0285714332386436	-0.238904288360811	0.880787210827444	0.40882591679788	0.076754726930997	-0.402571321552698	0.912165030549331
152	9.141516	1.11248657226562	-8.76277770996094	1.274150390625	0.967551177336946	0.250830304615621	0.0304774920281205	-0.239680021797452	0.872904833416923	0.424959573310859	0.0799887891211152	-0.41847498143116	0.904699112153388
153	9.141516	0.983155517578125	-9.05676635742187	0.144299926757813	0.966892213514742	0.253274993062904	0.0311644883409011	-0.240894871079654	0.86562008384013	0.43894365417457	0.0841968439555845	-0.431918566794244	0.897973965728587
154	9.141516	1.55017639160156	-8.97713195800781	0.0856219482421875	0.965820981755348	0.257516258098685	0.0295839148184793	-0.242573092427989	0.857695939918686	0.45333869179337	0.091368079935272	-0.445020282079203	0.890847249817324
155	9.141516	2.02079772949219	-9.13640075683594	-1.01488952636719	0.965340435500414	0.259633108072689	0.0266175276911306	-0.241331252568779	0.849124896746703	0.469836286655774	0.0993834499373857	-0.459975606872167	0.882352180799213
156	9.141516	2.25790466308594	-9.1920849609375	-3.41829162597656	0.964625569214225	0.262499709711238	0.0243189970937729	-0.24146368945217	0.842751288242363	0.481108670512165	0.105796020219464	-0.469961879908735	0.876323589513811
157	9.141516	2.49620910644531	-9.034013671875	-2.44112365722656	0.963872246240326	0.265147388254664	0.025439249779812	-0.243052768100259	0.836420892322623	0.49124886036003	0.108975432306694	-0.479684222575599	0.870647690955195
158	9.141516	3.08718017578125	-9.48786987304688	-4.05416931152344	0.963523473239998	0.266542850501647	0.0240296766933641	-0.242582000218539	0.831914788722115	0.499070894237894	0.113033135343154	-0.486695688445969	0.866227924487892
159	9.141516	2.13276489257813	-9.09748168945313	-2.89917114257813	0.963541734521041	0.266270659548321	0.0262156766055389	-0.243144474857425	0.830518405049031	0.50111869174989	0.111660602642522	-0.48922297037089	0.864981384238408
160	9.141516	2.24233703613281	-9.40464294433594	-2.79858032226563	0.963645567670884	0.265906038721003	0.0260997793087207	-0.242466457382717	0.829280556317806	0.503491584793139	0.112237413336796	-0.491515755072954	0.863605827656651
161	9.141516	1.82021484375	-9.4794873046875	-1.58250915527344	0.96358134229068	0.266108106025517	0.0264097083816586	-0.242506092467558	0.827931470439192	0.505687922905534	0.112702226710073	-0.493675962716343	0.862312154576684
162	9.141516	2.34831665039062	-9.40703796386719	-1.73040161132813	0.963319659264225	0.266786875107466	0.0289827076970241	-0.244019792684063	0.825893609563017	0.508285437978897	0.111667250586214	-0.496713709246449	0.860700828507299
163	9.141516	2.423759765625	-9.54714660644531	-2.327958984375	0.96328606675273	0.267221303224174	0.0259370141540808	-0.242767681246832	0.825713322209525	0.509177142522862	0.114646441471559	-0.496779915685894	0.860270834580032
164	9.141516	1.60166931152344	-9.53577026367187	0.90292236328125	0.963114362744389	0.267524201279998	0.0290090676335876	-0.244349051170373	0.824303206141406	0.51070320689921	0.112713200059305	-0.498953931815852	0.859267541838916
165	9.141516	1.56514526367188	-9.49924621582031	-0.712518310546875	0.963044454018735	0.267617799091474	0.0304317793300696	-0.244842422549858	0.822755071783272	0.512958360858677	0.112238886771365	-0.501452695141167	0.857873899143683
166	9.141516	2.04115539550781	-9.33638488769531	-1.25558898925781	0.962726499377151	0.268843082980358	0.0296830613419928	-0.24526813420501	0.82146292107632	0.514822504986285	0.114022935151702	-0.502913577098865	0.856782763732449
167	9.141516	1.96451477050781	-9.43218566894531	-0.99393310546875	0.962556886816086	0.269136128151638	0.0324034591744407	-0.246818368313028	0.820696582763549	0.515303611576251	0.112093410628006	-0.504006809045055	0.856394887729956
168	9.141516	1.99804504394531	-9.47290100097656	-1.39090759277344	0.962319983056137	0.269840395184901	0.0335620520423638	-0.248192699255861	0.821210899285199	0.513821995375136	0.111088407347155	-0.502791030172231	0.857240074734856
169	9.141516	2.00044006347656	-9.33997741699219	-0.101189575195313	0.961955041095722	0.270811829208972	0.0361033526285007	-0.250254862565887	0.820393211468985	0.514127885197578	0.109612967630004	-0.503602950483906	0.856953362553207
170	9.141516	1.89984924316406	-9.34835998535156	-1.5184423828125	0.961584169901039	0.271760556841423	0.0387567276865522	-0.252529659384994	0.820370561922077	0.513050594252218	0.107632036711328	-0.503128553032816	0.85748294665053
171	9.141516	1.70645141601562	-9.37829772949219	1.15380065917969	0.961303259814196	0.272595736727281	0.0398447862174177	-0.253931047094008	0.820659956881208	0.511894772871805	0.106841312198707	-0.502203942128939	0.858123612609403
172	9.141516	1.98127990722656	-9.43458068847656	-0.226329345703125	0.960753358369058	0.274376293522675	0.0408733890855189	-0.256053817243313	0.820445908193926	0.511179962834003	0.10672125869622	-0.501583653322756	0.858501258975018
173	9.141516	1.9399658203125	-9.14178955078125	0.640667724609375	0.960209105219173	0.275912047914012	0.0432552432670513	-0.25878082226885	0.820741938721122	0.509328141820333	0.105028378451033	-0.500255146740332	0.859484629228328
174	9.141516	2.47405517578125	-9.23639282226562	0.6466552734375	0.959872410796817	0.277015073024255	0.0436761297332243	-0.260072957904681	0.821043401608959	0.508182830525687	0.104914305782465	-0.49914965891179	0.86014103869681
175	9.141516	2.35969299316406	-9.26273803710938	1.43701171875	0.959831149864591	0.277119540289245	0.0439195188896059	-0.260477980390596	0.821905921090606	0.5065786006217	0.104285116297837	-0.497669988311613	0.861074443502225
176	9.141516	1.65076721191406	-9.14837585449219	1.49329467773438	0.959534466629005	0.277487435480754	0.0478991701525733	-0.262885966683227	0.821778365433883	0.50554058850486	0.100918659682024	-0.497675638599208	0.861472218282664
177	9.141516	1.89745422363281	-9.04299499511719	1.12865295410156	0.959219948604363	0.278559359359869	0.0479768018157113	-0.264103476663023	0.822754446382268	0.503313495321467	0.100729557796847	-0.495459185272842	0.862770973036775
178	9.141516	1.77650573730469	-9.06514892578125	2.89198608398438	0.958940596758544	0.279088229196557	0.0504251148962261	-0.265845879367284	0.822632233725192	0.502595440150164	0.0987871464908415	-0.495364480317505	0.863049900833067
179	9.141516	1.64837219238281	-8.96455810546875	1.08434509277344	0.958464080746126	0.280328487095624	0.0525599204923551	-0.268227961599976	0.823301708942974	0.500228004681366	0.0969554873919274	-0.493548615005915	0.864297054310806
180	9.141516	1.32085327148438	-8.77415405273438	3.09077270507813	0.958092060916702	0.281314649541757	0.054052481548814	-0.269951256563692	0.823525050229288	0.49893166939425	0.0958432151384224	-0.492614006701036	0.864954055724281
181	9.141516	1.72740783691406	-8.95437927246094	2.72852600097656	0.957534379686087	0.282662538832454	0.0568313369539391	-0.272633916285908	0.823550150481821	0.497429288775781	0.0938011695544846	-0.491799795427125	0.865640977431203
182	9.141516	1.79267211914063	-8.77116027832031	3.23866516113281	0.95719932633172	0.283623124219267	0.0576833865008249	-0.274019979091635	0.823893060206818	0.496098051197206	0.0931799373723842	-0.490671120763336	0.866348284767813
183	9.141516	1.61304565429688	-8.55620727539062	2.14653625488281	0.956828854120633	0.284316915015525	0.0603525952901095	-0.276019245947327	0.823798467057217	0.495145899246726	0.0910599790735006	-0.490428361241716	0.866711083753346
184	9.141516	1.25678649902344	-8.535849609375	2.42735229492188	0.956517947729537	0.285206180814564	0.061080685134049	-0.27742381041121	0.82495911671914	0.492421044593853	0.0900524574245458	-0.487954803406162	0.868211186719368
185	9.141516	1.21547241210937	-8.55381225585938	3.70988525390625	0.956033189614153	0.286440281832857	0.0628689533848269	-0.279514471338135	0.82518041750192	0.490865499789831	0.0887254228998248	-0.486856491704559	0.868964070497956
186	9.141516	1.39090759277344	-8.43346252441406	2.82732055664062	0.955443485886544	0.288217758261256	0.0637045453623571	-0.281696384971102	0.825858524843514	0.488471947646442	0.0881753478653843	-0.48465268055191	0.870251048412277
187	9.141516	1.62502075195313	-8.22389831542969	4.13500122070313	0.955060629610317	0.28906037430953	0.0655994952143681	-0.283514160618176	0.826284782523791	0.48669618747077	0.0864807174884474	-0.483422753057452	0.871104774024938
188	9.141516	0.992735595703125	-7.80955993652344	3.80568603515625	0.954749166080381	0.290097257285082	0.0655561681651051	-0.284747368801221	0.827972078621074	0.483095407745385	0.0858659759718597	-0.479901884075871	0.873110082309688
189	9.141516	1.20828735351563	-7.94308227539063	4.76788513183594	0.954521435074497	0.290709059527744	0.0661594489987405	-0.285827287186777	0.829160580980344	0.480411795075627	0.0848032539633355	-0.477473531891384	0.874544129509996
190	9.141516	0.571212158203125	-7.85746032714844	5.22234008789063	0.954105180249895	0.292018922680871	0.0663946821411138	-0.287359697466317	0.8303181732212	0.477489408773301	0.0843072315544937	-0.474654274198509	0.876125339601991
191	9.141516	0.181422729492188	-7.68861145019531	5.83187255859375	0.953463419996918	0.293735162320897	0.0680232397353914	-0.289814544274942	0.830630354229718	0.475458457237772	0.0831566993963188	-0.473046370928401	0.877104380502674
192	9.141516	1.0106982421875	-7.42336303710938	3.8847216796875	0.952425363200096	0.297049623259885	0.0681722000108954	-0.2930695356618	0.831260380345499	0.47235201633404	0.0836431395880272	-0.469859235717482	0.878769664821699
193	9.141516	0.9627978515625	-7.27906311035156	6.84855834960937	0.951565528523156	0.299447302455565	0.0696732228229222	-0.296148937282452	0.83188627025073	0.469319763396775	0.0825763396677396	-0.467222159599066	0.880275298816605
194	9.141516	0.853824462890625	-7.30181579589844	4.85171081542969	0.950439558889643	0.30261282023631	0.0713451184474987	-0.299931573329444	0.831974778151893	0.46675370361598	0.0818883155143964	-0.465019837800213	0.88150488043713
195	9.141516	0.931063842773438	-6.9407666015625	6.41266479492188	0.949329067709305	0.305703931941823	0.0729344033875025	-0.303701043722342	0.832604644049051	0.463179428245591	0.0808702494378616	-0.461859949230567	0.883258393706279
196	9.141516	1.06159240722656	-6.63719787597656	5.43489807128906	0.948423754076288	0.308236597579606	0.0740444637794666	-0.306740736932521	0.833371997163012	0.459783899947167	0.0800156422828387	-0.458782425837216	0.884938519182539
197	9.141516	0.873583374023438	-6.27435241699219	5.67978881835938	0.947539690923702	0.310734430852577	0.0749176054538681	-0.309756202547748	0.834837886510552	0.455078892314061	0.0788646251966922	-0.454411505938527	0.887293950257335
198	9.141516	0.926273803710938	-6.19591552734375	6.4234423828125	0.946730269555051	0.312948917597882	0.0759260935550803	-0.312596816144873	0.836453771218312	0.450142554254485	0.0773629578306657	-0.449897836835184	0.889722939552934
199	9.141516	0.843046875	-6.09233093261719	6.4330224609375	0.945984706218873	0.315151192497522	0.076109535981918	-0.315043174692197	0.838114343642661	0.445322518025187	0.0765554288072044	-0.445246081226799	0.892129583341078
200	9.141516	0.54366943359375	-5.81450866699219	6.7683251953125	0.94519581096259	0.317348237895483	0.0767787395273276	-0.317768388851809	0.840079740337785	0.439646768349917	0.07502086366671	-0.439950140105253	0.894883089702823
201	9.141516	0.590372314453125	-5.43489807128906	7.79698608398438	0.944326111921519	0.319995060002437	0.0764941560985148	-0.320387841214419	0.841496618412623	0.435011577319598	0.0748319821009117	-0.435300588988985	0.897169756334158
202	9.141516	0.6466552734375	-5.25646911621094	6.9695068359375	0.943500558523669	0.322437659582424	0.0764241568388767	-0.322966993363641	0.843170748198539	0.429831839886212	0.0741553589646394	-0.430229061158501	0.899668793318686
203	9.141516	0.583187255859375	-4.88164855957031	8.2149169921875	0.942613519582417	0.324930297514096	0.0768118119682776	-0.325803668199828	0.844813999482024	0.42443053149688	0.0730186447969652	-0.42509952721285	0.902196580283603
204	9.141516	0.293389892578125	-4.72597229003906	6.75335632324219	0.94158783858131	0.32809870082967	0.0759182767827356	-0.328696619878438	0.84630747076349	0.419192315066001	0.073286249162217	-0.419660466858373	0.904717756120629
205	9.141516	0.155077514648437	-4.36312683105469	8.31490905761719	0.940340445050611	0.33176751538452	0.0754331700089675	-0.332221874867979	0.847508550544753	0.413953961948351	0.0734062208618864	-0.41431820197659	0.907166993584788
206	9.141516	0.886755981445313	-4.03441040039062	7.97421752929688	0.939422864494886	0.334309850736914	0.0756412940429018	-0.33506432568537	0.849187120826713	0.408182718246431	0.0722258909064537	-0.408800877594825	0.909761102246337
207	9.141516	0.270038452148438	-3.83861755371094	8.29036010742188	0.93822484281842	0.337415928084408	0.0767113798160926	-0.338823517704789	0.850837659406329	0.401589219459527	0.0702336683400753	-0.402772601862263	0.912601480943681
208	9.141516	0.509540405273438	-3.23028259277344	8.58913879394531	0.93732142182638	0.33992592401089	0.0766741049554287	-0.341571340772082	0.852705560017397	0.395249600984721	0.0689751502248154	-0.396665594803433	0.915368141542354
209	9.141516	0.0089813232421875	-3.03149597167969	9.00886596679688	0.936283935424029	0.342528188322412	0.0777613816200566	-0.344839199006933	0.85431600061231	0.388883141735464	0.0667706454600421	-0.390920210915674	0.917999493247406
210	9.141516	0.501756591796875	-2.92970764160156	8.14665893554688	0.93527579052142	0.345337690996636	0.0774666046864353	-0.347700502527188	0.855706913786957	0.383236269472949	0.066057219188169	-0.385366782266341	0.92039604894785
211	9.141516	-0.197589111328125	-2.30460754394531	8.53165832519531	0.934445708656341	0.347826397043935	0.0763414375891866	-0.350027511722527	0.857702447229335	0.376599592477404	0.065513041534379	-0.378633476512901	0.923225179386194
212	9.141516	-0.0999920654296875	-2.21419555664063	8.9717431640625	0.93312755296443	0.35107078472115	0.0776033118745039	-0.353991216223253	0.85926630659459	0.369258220203793	0.0629538619577679	-0.372035910184174	0.926081040081285
213	9.141516	0.141904907226563	-1.94116333007813	9.01425476074219	0.932057442258265	0.353920346736107	0.0775197555283483	-0.3569230586414	0.86017460394175	0.36428777215784	0.0622483296245684	-0.367205717411709	0.92805447391794
214	9.141516	0.137713623046875	-1.79267211914063	8.190966796875	0.930817825496451	0.356890774640734	0.0787854727370246	-0.36054166828732	0.861314977268657	0.35797516025737	0.0598989245868029	-0.361615106029921	0.93040132949406
215	9.141516	0.483195190429688	-1.51245483398438	9.5369677734375	0.930218400548141	0.359047204180449	0.0760186322677649	-0.361819183735671	0.862480384512196	0.353856559374768	0.0614866291360305	-0.356668882160889	0.932205290124225
216	9.141516	0.555045776367188	-1.20708984375	7.93050842285156	0.929833843715928	0.360880950646203	0.0719302616508295	-0.362410148707683	0.864214054895173	0.348988468914546	0.0637801473355099	-0.350569546284808	0.934362395445967
217	9.141516	-0.171243896484375	-0.6753955078125	9.76329711914063	0.928972618174948	0.362933072227282	0.0727286722335067	-0.365058855114168	0.86586811430694	0.342059119055869	0.06117112867943	-0.344313801219484	0.936859700972283
218	9.141516	-0.21794677734375	-0.530496826171875	8.89330627441406	0.927891572526182	0.365623035269905	0.0730549499685744	-0.368101976778041	0.867148246652106	0.335491956714729	0.059314115748172	-0.338191830782768	0.939206112237783
219	9.141516	-0.03592529296875	-0.322130126953125	10.5165307617187	0.926900070616604	0.368244823836265	0.0724707445024113	-0.370736991105639	0.868332548967084	0.329473318844279	0.0583981379572399	-0.332256428263058	0.941379478935569
220	9.141516	0.0161663818359375	-0.372425537109375	9.08790161132812	0.925654300294209	0.371254832868113	0.0730340017999092	-0.374072561758559	0.868920136119285	0.32411034476831	0.056866817092472	-0.327334150553395	0.943195907007266
221	9.141516	0.128133544921875	-0.214953002929687	9.73395812988281	0.92465580090442	0.373853787006003	0.072422343203436	-0.376609501517954	0.869630996730682	0.319229091549626	0.056364290292738	-0.322451973891418	0.944906234138247
222	9.141516	-0.250878295898438	0.174237670898438	8.58494750976562	0.923556599692802	0.37634116269599	0.0735563486349089	-0.37961277090012	0.870195588415213	0.314091996192573	0.0541973369585882	-0.31800466531693	0.946538790279228
223	9.141516	-0.170645141601563	0.36643798828125	8.30532897949219	0.92226598196102	0.379621962883278	0.0728877480384909	-0.382842487571087	0.870948867992118	0.308025484422361	0.0534517373698709	-0.311985952632318	0.948581929583443
224	9.141516	-0.555045776367188	0.468226318359375	9.76030334472656	0.921072850500117	0.382529591565737	0.0727730420426463	-0.385805637865007	0.871213982585729	0.303546053077104	0.0527144559221236	-0.307664278270428	0.950033619412056
225	9.141516	-0.36164794921875	0.638272705078125	9.321416015625	0.91974810519453	0.385794603322195	0.0722907119797743	-0.389007968407987	0.871405718908995	0.298872671162468	0.0523089237717909	-0.303009235998127	0.951550933683357
226	9.141516	-0.331111450195313	0.75443115234375	9.51661010742188	0.918361290446987	0.389285165602616	0.0712011239397895	-0.392215533056048	0.871354150064627	0.294803189933069	0.0527211137790727	-0.298662024715055	0.95290161042733
227	9.141516	0.116158447265625	0.846639404296875	9.38608154296875	0.916922514127037	0.392569592918902	0.0717092588334533	-0.395638049686929	0.870751339131941	0.291997669579495	0.0521884731227019	-0.296110148619429	0.953726975165169
228	9.141516	-0.156275024414063	0.921483764648438	8.70589599609375	0.915503617851448	0.395885459459393	0.0716088590157318	-0.398941822801278	0.870359487479252	0.288651666502808	0.0519475477852772	-0.292829413726626	0.954752526435839
229	9.141516	0.139509887695313	1.05740112304687	9.16573974609375	0.914067058775875	0.39901900784074	0.0725619972341726	-0.402291087939498	0.869381240036061	0.286946231963092	0.0514129616466137	-0.291479143087722	0.955194543807476
230	9.141516	0.130528564453125	1.12386291503906	8.92683654785156	0.913054822846306	0.401505447053635	0.0715839818909291	-0.404437040412565	0.868770750614518	0.28577624677186	0.0525506500380871	-0.289880594146877	0.955618998512288
231	9.141516	-0.381406860351563	1.07596252441406	9.57349182128906	0.911691635819614	0.404441623860457	0.0724246785679771	-0.407622064731752	0.868174054369251	0.28305134457176	0.0516005186057378	-0.287577440368981	0.95636635358551
232	9.141516	0.1916015625	0.972976684570312	9.71719299316406	0.910444930607346	0.407164534529593	0.0728496407176114	-0.410405913684279	0.867278547595733	0.281771018547346	0.0515462350163187	-0.286434918788783	0.956712089896488
233	9.141516	-0.0748443603515625	1.07536376953125	9.86089416503906	0.909300757071666	0.409513513207562	0.0739649625788824	-0.412983299504327	0.866185768815867	0.281366323911348	0.051155913826407	-0.286392905640601	0.956745617225038
234	9.141516	0.14130615234375	1.01728454589844	10.0027990722656	0.908182706076186	0.41174977837994	0.075274779230542	-0.41546726712005	0.864875442631264	0.281739984178982	0.0509030680404781	-0.287145588051508	0.9565334750685
235	9.141516	0.113763427734375	0.892144775390625	9.79802490234375	0.907227321819234	0.413521471269213	0.0770621784278484	-0.417556662410224	0.863190082496144	0.283812112421466	0.0508430941380807	-0.289659928674379	0.955778272142038
236	9.141516	-0.165855102539063	0.619112548828125	8.97713195800781	0.906357932978888	0.414976167322476	0.0794359986441043	-0.419482806659362	0.861347381806973	0.286556910179214	0.0504922988526198	-0.293045164451867	0.954764399916522
237	9.141516	0.11735595703125	0.314945068359375	8.60231140136719	0.90550685201417	0.416808340310745	0.0795496599791046	-0.421083819401632	0.859494181658055	0.289755360147289	0.0523999808542167	-0.295872538677306	0.953789118654184
238	9.141516	0.230520629882813	0.0880169677734375	8.78672790527344	0.904339006555793	0.419006675930394	0.0812672550751091	-0.42360506889233	0.857810832956504	0.291065835286783	0.0522465963523506	-0.297647409510364	0.953245148312523
239	9.141516	0.497565307617188	-0.124541015625	9.11903686523438	0.903337827103963	0.420758637629752	0.0833243000753462	-0.425800665445471	0.85624255821572	0.292476451712603	0.0517161815033299	-0.299684584789	0.952635599907205
240	9.141516	0.364641723632812	-0.210162963867188	9.29507080078125	0.90228879526642	0.42269768387164	0.0848622294441027	-0.428005451882342	0.854558302172537	0.294179267364279	0.051829172245608	-0.30175615360344	0.951975294147276
241	9.141516	0.0892144775390625	-0.255668334960937	9.48727111816406	0.901137669094311	0.424540325043633	0.0878431201126083	-0.43057864982892	0.852817180733533	0.295473996414597	0.0505265044385228	-0.304086120461877	0.951303686365016
242	9.141516	0.335302734375	-0.471220092773438	9.60342956542969	0.900172686674397	0.426228122359484	0.0895473164048315	-0.432559689052065	0.850942209009629	0.297975623722804	0.0508059993758551	-0.306964077109556	0.950364038561908
243	9.141516	0.381406860351563	-0.729283447265625	9.32381103515625	0.899229748907008	0.427700987272396	0.0919658858863337	-0.434536715442034	0.848897316774368	0.30091724527871	0.0506330091293077	-0.310556292899528	0.949205503211509
244	9.141516	0.0329315185546875	-0.904119873046875	9.03521118164062	0.898290116477317	0.429242857502909	0.0939437912898247	-0.436414911944222	0.846661878252786	0.304476088627962	0.0511555595403448	-0.314506332521625	0.947875981092417
245	9.141516	0.431702270507813	-1.13104797363281	8.54243591308594	0.897710943984193	0.430418283195414	0.0941018732126155	-0.437357980453065	0.844769922296669	0.308353328694368	0.053226478232429	-0.317968363008009	0.946606075482817
246	9.141516	0.360450439453125	-1.30348937988281	9.0579638671875	0.897075877093614	0.431617208836617	0.0946649659209318	-0.438469308806357	0.842938273881114	0.311768715013558	0.0547680196063259	-0.321187875646665	0.945430490605197
247	9.141516	0.64905029296875	-1.62142822265625	8.65859436035156	0.89614913969497	0.433017282629032	0.0970193401777926	-0.440328869648021	0.840613013625148	0.315404895140428	0.0550200506948252	-0.325370241830161	0.943984639574671
248	9.141516	0.55324951171875	-1.72621032714844	8.47477661132813	0.89546982025787	0.434111596124962	0.0983916821544123	-0.441631286233493	0.838840656363057	0.318289428432908	0.0556381885676393	-0.328471422413327	0.942873754343962
249	9.141516	0.2634521484375	-2.00044006347656	8.80169677734375	0.894438138307575	0.435767743076289	0.100433514501276	-0.443662349524845	0.836549426612545	0.321479045115412	0.0560725989675386	-0.3321016876326	0.941575452481959
250	9.141516	0.693956909179688	-2.26508972167969	8.50291809082031	0.893709094194567	0.436816965099595	0.102347417921049	-0.445066372820665	0.8344358525622	0.325011894771639	0.0565683545649262	-0.336017480140504	0.940155452200243
251	9.141516	0.728684692382813	-2.53452941894531	8.669970703125	0.892585732795722	0.438471659239696	0.10503958136394	-0.44732545329191	0.83200113932774	0.328137231954148	0.056485825183949	-0.33987748998857	0.938771880358779
252	9.141516	0.719703369140625	-2.56207214355469	8.15504150390625	0.891933327525806	0.439612054698838	0.105812005992749	-0.4484512914685	0.830103849450883	0.33138955672601	0.057847890445357	-0.343028920778253	0.937541882307521
253	9.141516	0.510737915039063	-2.76684631347656	8.66577941894531	0.891008517732519	0.440992805789952	0.107838613537105	-0.450236886915389	0.827891231937807	0.334488944124079	0.0582285753632973	-0.346585419950129	0.936209367443605
254	9.141516	0.975970458984375	-3.04227355957031	8.37418579101563	0.890197596838782	0.442275844371407	0.109271753294328	-0.451718868542471	0.825757462195518	0.337749429949374	0.0591464486268414	-0.350023843636367	0.93487165242126
255	9.141516	0.268840942382813	-3.05843994140625	8.57177490234375	0.889239988545462	0.443774117799972	0.110980967478769	-0.453495477653125	0.823435658276124	0.341021360661662	0.0599507674665743	-0.353579197705724	0.933481470855178
256	9.141516	0.851429443359375	-3.2907568359375	7.884404296875	0.888284155320747	0.445114270561276	0.113245510060275	-0.455311124220113	0.820992049773251	0.344476173879317	0.0603575974300288	-0.357554667640936	0.931939708393551
257	9.141516	0.993334350585938	-3.47936462402344	7.93350219726562	0.887516384343289	0.446697641167174	0.113030460044613	-0.456460861613507	0.81884782395093	0.348039829654425	0.062913824691153	-0.360485032402885	0.930640850208189
258	9.141516	0.698148193359375	-3.5398388671875	8.52866455078125	0.8867917186362	0.447948790883029	0.113764355158762	-0.4575975929549	0.81646719336751	0.352116124419862	0.0648451284225557	-0.364311958218523	0.92901663409158
259	9.141516	1.10949279785156	-3.84580261230469	7.970625	0.885738906274962	0.449301964542801	0.116594745030876	-0.459644463221649	0.813915743821314	0.355342270760852	0.0647576817104885	-0.368332603251161	0.927436001048971
260	9.141516	0.995130615234375	-3.9853125	8.16581909179687	0.884366253195031	0.451143159985354	0.119858998027731	-0.462335551774832	0.811149980595854	0.35816413352597	0.0643596750678902	-0.372163348783536	0.925933190920047
261	9.141516	1.12805419921875	-4.09428588867187	7.41318420410156	0.88327116219631	0.452820371869599	0.121596730434079	-0.464272699499599	0.808499971745726	0.36163331730707	0.0654439801030983	-0.375874322755677	0.924356846115842
262	9.141516	1.13703552246094	-4.20445678710938	7.970625	0.88220520727256	0.454422016359895	0.123347490078176	-0.466185294033931	0.80609454765665	0.364531002611187	0.0662211740131191	-0.379093934646318	0.922985668808946
263	9.141516	1.26277404785156	-4.44695251464844	8.05804321289063	0.881155259487497	0.456101687267056	0.124646137323491	-0.467939205323865	0.803392283401893	0.368230551545037	0.0678108309814244	-0.382795101643735	0.921341197037868
264	9.141516	1.23463256835938	-4.44395874023438	7.82931884765625	0.880472771092707	0.457294202122615	0.125098809224433	-0.468865794129216	0.800808366417506	0.372653763393456	0.0702322323432065	-0.386766044244795	0.919499570722751
265	9.141516	1.274150390625	-4.68705322265625	7.92871215820313	0.879333594851307	0.458670262840387	0.12803913054925	-0.47096850763424	0.797868345222824	0.376290803113986	0.070435032353613	-0.391187542845273	0.917611689408992
266	9.141516	1.47832580566406	-4.799619140625	7.26110046386719	0.878649635838723	0.4596800384924	0.129108789987772	-0.471949849209553	0.795154466529291	0.380779088435277	0.07237511500206	-0.395504281355013	0.915608107302624
267	9.141516	1.52023864746094	-4.98942443847656	7.2664892578125	0.877859338756521	0.460679142004797	0.130911074702216	-0.473249812576112	0.792498600439933	0.384682444618186	0.0734683350474199	-0.399650718030723	0.913718614959161
268	9.141516	1.45198059082031	-5.13791564941406	7.20002746582031	0.877038298718349	0.461774615530412	0.132544434183274	-0.474591340797802	0.789923278406597	0.388309507314874	0.0746115394625301	-0.403466750405923	0.91194720214271
269	9.141516	1.32145202636719	-5.29239440917969	7.16529968261719	0.876207905671355	0.462760746306747	0.134581565292728	-0.47598804249234	0.787242729900733	0.39202585070726	0.0754658163894679	-0.407555365436481	0.910056885398165
270	9.141516	1.51305358886719	-5.44268188476563	6.64019165039063	0.87536219291548	0.463916977937477	0.136095807413604	-0.477352099506026	0.784706241350132	0.395437843261538	0.0766550997089663	-0.411116957042039	0.908353919637661
271	9.141516	1.40647521972656	-5.46782958984375	7.17368225097656	0.874602930010606	0.4648553497825	0.137765084819972	-0.478567322153426	0.782145570863747	0.399025843956407	0.0777369473530029	-0.414919040002762	0.906531387906356
272	9.141516	1.427431640625	-5.63667846679688	6.81023803710938	0.87392626650081	0.465612236318165	0.13949238728602	-0.479646153243244	0.779657083112923	0.40258465001886	0.0786921114147707	-0.418736287109974	0.90469192184878
273	9.141516	1.46635070800781	-5.73667053222656	6.91981018066406	0.873182132974819	0.466564258049781	0.140963668241159	-0.480781482709695	0.777044737596433	0.40626425102039	0.0800133022503964	-0.422515406682584	0.902817037155834
274	9.141516	1.63160705566406	-5.9156982421875	6.85753967285156	0.872532266407792	0.467272615742442	0.142631506528182	-0.481734976686702	0.774252696990709	0.41044387367736	0.0813563538633875	-0.426836108805043	0.900662023128668
275	9.141516	1.39330261230469	-6.00072143554688	6.85215087890625	0.87178236536917	0.468308592413061	0.143814358474502	-0.482821312285542	0.771640108617877	0.414071398644071	0.0829402666634379	-0.430416780625811	0.898811608248086
276	9.141516	1.57053405761719	-6.14382385253906	7.03716613769531	0.87106123576325	0.469076057462217	0.145670779040628	-0.483859847191145	0.768490723597333	0.418690405933799	0.0844510025207626	-0.435189223281725	0.89636954885398
277	9.141516	1.80464721679688	-6.255791015625	5.80432983398437	0.870048299984881	0.470366673752709	0.147550492768514	-0.485464630988298	0.765509943142363	0.422277893110179	0.0856740786516839	-0.439032708545717	0.894377008355088
278	9.141516	1.76572814941406	-6.26117980957031	6.6054638671875	0.869299815169537	0.471290345229512	0.149007522761961	-0.486510892108734	0.762565744527068	0.426380859248445	0.0873211498193469	-0.443146584966335	0.892186147071844
279	9.141516	1.70764892578125	-6.42284362792969	6.11029357910156	0.868494502059408	0.472226123117696	0.150730847996727	-0.487712013724599	0.75967316363045	0.430155409274833	0.0886244411055859	-0.447100853393208	0.890082319414215
280	9.141516	1.91841064453125	-6.57013732910156	6.18334167480469	0.867732039858934	0.473076845354893	0.152444761770674	-0.488821231388012	0.756745806610711	0.434038694037078	0.0899717219272917	-0.451147517521894	0.887902588512541
281	9.141516	2.02439025878906	-6.62043273925781	5.89893310546875	0.867122150628294	0.473824340665448	0.153589290260475	-0.489536367377338	0.753776656518413	0.438377573676988	0.0919419431204407	-0.45531444769618	0.885570681997977
282	9.141516	1.85973266601563	-6.78149780273438	6.03125793457031	0.866906028620588	0.474204254665857	0.153636787255137	-0.489390947612559	0.751115695566415	0.443082060422967	0.0947123958949534	-0.459298962257242	0.883217994230902
283	9.141516	1.75854309082031	-6.82400939941406	6.28632751464844	0.866354393242452	0.474607799703283	0.155491162997491	-0.490073330861762	0.74789042652412	0.447758908668079	0.0962195182255754	-0.464119969807785	0.880530781936702
284	9.141516	2.06809936523438	-6.93358154296875	5.85881652832031	0.865997088161013	0.474635589362671	0.157385198182669	-0.490359872218699	0.744400336410784	0.453227685461924	0.0979603951314428	-0.46966924155395	0.877390770708143
285	9.141516	1.79446838378906	-6.99585205078125	5.72888671875	0.865887832289841	0.474225605544439	0.159211610564089	-0.490235727772369	0.741119740874977	0.458705200429321	0.0995348838744326	-0.475238471434519	0.874208900755812
286	9.141516	2.00044006347656	-7.16649719238281	5.85163146972656	0.865590242444423	0.473917873285832	0.161726255027558	-0.490429597863354	0.737074204013245	0.464973577010383	0.101155038058386	-0.48179193347178	0.870427590967182
287	9.141516	2.21599182128906	-7.35450622558594	5.53010009765625	0.865450317514054	0.473695939707701	0.163119295668116	-0.490058680147712	0.73277244085454	0.472109139856413	0.104106858211679	-0.48852503173176	0.866316948607596
288	9.141516	2.098037109375	-7.50000366210938	5.22054382324219	0.865468080516799	0.472948202784246	0.165181715361352	-0.489480425145523	0.728143385370602	0.479808423998993	0.106648558386527	-0.49611209199554	0.861683745448343
289	9.141516	2.07348815917969	-7.58682312011719	4.39126831054688	0.86572230997273	0.471212961138365	0.168769746313416	-0.488817010578413	0.72345794471997	0.487510545927717	0.107623474133966	-0.504546278825611	0.856650594080553
290	9.141516	2.13096862792969	-7.84189270019531	4.44156372070313	0.865683525963812	0.470707153235949	0.170372558727543	-0.487965412457194	0.717514704368855	0.497053724721941	0.111721927661231	-0.513427136901609	0.850829469384244
291	9.141516	2.10043212890625	-8.05744445800781	4.44755126953125	0.866367737554566	0.468710415750313	0.172387614090317	-0.486032890979409	0.711993177626926	0.506791617826213	0.11479970475041	-0.522853957793074	0.844656596854211
292	9.141516	2.24113952636719	-8.21371948242188	3.51828369140625	0.866629868233537	0.467295079825869	0.174894196176023	-0.484998532897569	0.706633101267983	0.515214599249284	0.117171219046013	-0.531323788817072	0.839026779587126
293	9.141516	1.94236083984375	-8.16881286621094	3.00215698242188	0.86674011501878	0.466286530423569	0.177026677545454	-0.484051289151731	0.70085000918864	0.523930924923153	0.120232784579662	-0.539801941609914	0.833161413740691
294	9.141516	2.26389221191406	-8.55081848144531	3.16262329101563	0.86702884799129	0.464767981997531	0.179587582145425	-0.482814218511938	0.694642769591535	0.533255898286094	0.123091052288964	-0.549055685303544	0.826671910301936
295	9.141516	2.22197937011719	-8.77654907226563	1.98547119140625	0.867113191665268	0.463247022180581	0.183076238985013	-0.482230090223334	0.688643053221109	0.541502433358803	0.124775209570127	-0.557828774527752	0.820523129098503
296	9.141516	2.43333984375	-8.87115234375	1.85314636230469	0.866711783852776	0.463440731122108	0.184481360759689	-0.481664621645615	0.681447682699969	0.551024725396084	0.129652905812892	-0.56643776752601	0.813841741086327
297	9.141516	2.59859619140625	-8.9621630859375	1.9543359375	0.86638638289299	0.46264030113138	0.187985603987829	-0.48156297987964	0.674385107517768	0.559733707371363	0.132180679174547	-0.57547256974361	0.80706851600446
298	9.141516	2.59440490722656	-8.86875732421875	0.444276123046875	0.866148572847443	0.461993556779707	0.190653096613652	-0.48121280571803	0.667867865645841	0.567791114452007	0.134984759759467	-0.58353617499835	0.800790014361427
299	9.141516	2.70277954101563	-8.96455810546875	0.875379638671875	0.865872634219318	0.461487567526928	0.193116043684048	-0.48100549407826	0.661926881310622	0.574879568661927	0.137471073235895	-0.590662364482852	0.79512242781027
300	9.141516	2.66865051269531	-9.12861694335938	0.0910107421875	0.865668753972321	0.460819692582198	0.195608842654051	-0.480969152312972	0.657183199324044	0.580326560696265	0.138875062265874	-0.596452389931219	0.790543018200773
301	9.141516	2.79498779296875	-9.06993896484375	-0.23710693359375	0.865455609627008	0.460749005924068	0.196715381465526	-0.480753538851313	0.653342412995335	0.584824526044669	0.140934817015111	-0.600711282498853	0.786945571454278
302	9.141516	2.91893005371094	-9.09388916015625	0.411344604492188	0.865075164650571	0.460500118721146	0.198958790111418	-0.480883621346938	0.648350456992902	0.590247937427443	0.142814222768756	-0.606284855142289	0.782318843055726
303	9.141516	2.91354125976562	-9.29147827148438	-0.817300415039063	0.86494553232031	0.460479367181545	0.199569482935693	-0.480482612350175	0.644965389503171	0.594269388049034	0.144933382449618	-0.609900318694052	0.779112261428741
304	9.141516	3.00095947265625	-9.06694519042969	1.08793762207031	0.864735973489702	0.459989455644736	0.201597115178959	-0.480536670414055	0.641114815413796	0.598378059293879	0.146000700478433	-0.614313840111547	0.775436845466614
305	9.141516	2.82971557617188	-9.29507080078125	-0.7807763671875	0.864564696815021	0.459440115486164	0.203574716758272	-0.480553004553507	0.63741965921422	0.602299749179613	0.14695813973968	-0.618555541830553	0.771875862321763
306	9.141516	3.58594299316406	-9.1058642578125	-0.93884765625	0.86411687594028	0.459950468235177	0.204322273591141	-0.48096274463913	0.635088310617257	0.604431696708994	0.148245954361009	-0.620571030976761	0.770009566517218
307	9.141516	3.16681457519531	-9.1729248046875	-0.276624755859375	0.864420743142278	0.459623496501152	0.203771981119602	-0.479935227808016	0.633593961071721	0.60681205459542	0.149796381579194	-0.622338279360592	0.768281270179274
308	9.141516	2.96323791503906	-9.25136169433594	-0.0137713623046875	0.864744748800242	0.459003191460236	0.203795460331493	-0.479282392013065	0.633044979302576	0.607900027048886	0.150016359536693	-0.623353931895131	0.767414469150953
309	9.141516	2.58123229980469	-9.13041320800781	0.537681884765625	0.864754377026532	0.458634970155708	0.204582090036561	-0.479422169413631	0.632649958841476	0.608200964363431	0.149513380298162	-0.624025635473538	0.766966593394827
310	9.141516	2.77942016601563	-9.08790161132812	0.553848266601562	0.864790531906919	0.458529192600916	0.204666351550275	-0.479164399733796	0.631709121899637	0.609380885273358	0.150129324090597	-0.62505564939575	0.766006932871079
311	9.141516	2.97700927734375	-9.12083312988281	0.700543212890625	0.864938191136406	0.458334320787188	0.204478790837165	-0.478800253115911	0.631444165936115	0.609941458601876	0.150440164616439	-0.625466158711878	0.765610763493035
312	9.141516	2.85845581054688	-9.0675439453125	0.33769775390625	0.864796449915028	0.458329365899122	0.205088499357894	-0.479278706505491	0.631664795089148	0.609336941384164	0.14972982904147	-0.62524697440251	0.765928977971012
313	9.141516	2.9171337890625	-8.96994689941406	0.74485107421875	0.865032840147159	0.457784306471271	0.205308826443381	-0.479274270404752	0.632968633743386	0.607985922883931	0.148372366682391	-0.624327027643085	0.766942894457871
314	9.141516	2.55368957519531	-8.98072448730469	0.434097290039062	0.864960966269172	0.457730222213686	0.205731792640103	-0.479963409368248	0.634825287821789	0.605501428247358	0.146552558825521	-0.622478833065183	0.768792852391007
315	9.141516	2.25850341796875	-8.79151794433594	1.78428955078125	0.865093076780765	0.457638908952317	0.205379155512248	-0.480320301532975	0.637735179146501	0.60215135075349	0.14459037464943	-0.619564742615261	0.771513547040377
316	9.141516	2.17767150878906	-8.79451171875	2.18365905761719	0.864511815190998	0.457868746446235	0.207305408571316	-0.482274812260757	0.639541841971359	0.598662874936081	0.141528537242558	-0.617529305697824	0.773710042425679
317	9.141516	2.39501953125	-8.65919311523438	1.37593872070313	0.86474122844626	0.458594811236853	0.204727640859483	-0.481888729168921	0.642858734911095	0.595412377809254	0.141442074805261	-0.61353357369841	0.776898122934817
318	9.141516	2.07229064941406	-8.56698486328125	3.79969848632813	0.864131456206868	0.458809705533383	0.206810252410677	-0.483993035511541	0.644994414810023	0.591382233788098	0.137940450811653	-0.611126712697331	0.779420665018341
319	9.141516	1.9591259765625	-8.34664306640625	2.12917236328125	0.864171613716384	0.459361327779186	0.205413223984643	-0.484250380144482	0.648222871037892	0.58762971231322	0.136780815090227	-0.607284348558676	0.782621702113427
320	9.141516	1.34899475097656	-8.1670166015625	5.0726513671875	0.863413177035188	0.459969862833981	0.207232745980195	-0.486453205305271	0.650174408566774	0.583640743516997	0.133719724686494	-0.604732142133469	0.785122965847028
321	9.141516	1.81003601074219	-8.27359497070313	2.46746887207031	0.862707998553745	0.461221797877735	0.207386987040704	-0.488088472519115	0.652128355423799	0.580084692994229	0.132304770229001	-0.601666902209754	0.787713391126474
322	9.141516	1.31007568359375	-7.788603515625	4.32780029296875	0.861911131454685	0.46294661168099	0.206856559498598	-0.489934452318819	0.655223888982762	0.575018162963018	0.130665350822491	-0.59696071063295	0.79155825815605
323	9.141516	1.48371459960938	-7.65867370605469	3.60330688476563	0.860452537085018	0.465016658802622	0.208280912375576	-0.493053552617274	0.656774987025536	0.570565343031885	0.128528695922123	-0.593638040773714	0.794401819528949
324	9.141516	1.62502075195313	-7.24373657226563	3.24944274902344	0.85831639162453	0.4693013695276	0.207483002745202	-0.497131345802884	0.660400257533224	0.56278941431966	0.127096014449154	-0.586197683729279	0.800136787494219
325	9.141516	1.72381530761719	-6.75694885253906	6.04862182617188	0.856819763877241	0.472574498731585	0.206235873159691	-0.499719293467772	0.662531736689098	0.557971617213455	0.127045346099018	-0.581141154134105	0.803824880808165
326	9.141516	1.5471826171875	-6.65755554199219	6.66533935546875	0.855695973178225	0.474836855637708	0.205704550301315	-0.502017377860562	0.665279061363016	0.552614081288154	0.125550602597427	-0.57613690303611	0.807652967026918
327	9.141516	1.95613220214844	-6.42583740234375	6.61923522949219	0.855155520262723	0.47620023991908	0.204798358551046	-0.50329914667431	0.668165624096009	0.547945862045971	0.124092727913861	-0.571653767832769	0.811056696292864
328	9.141516	0.990939331054688	-6.21986572265625	7.10841796875	0.855289052493234	0.477073302569797	0.202192236894428	-0.503126235772213	0.671359981307365	0.544187253044996	0.123873433644625	-0.567165619086808	0.814234937203612
329	9.141516	1.08374633789063	-6.18094665527344	6.83179321289063	0.854137763594807	0.478841800741926	0.202877329101828	-0.505480626305258	0.672749018243719	0.54027594327543	0.122221181598387	-0.564020645290881	0.816665595243459
330	9.141516	0.85502197265625	-5.67978881835938	5.98455505371094	0.852623220942744	0.481746805006004	0.202370103957397	-0.508272242437617	0.674795462626649	0.535079817584184	0.121214564622641	-0.559080584070843	0.820204809689842
331	9.141516	1.465751953125	-5.5133349609375	7.893984375	0.851427901865081	0.484129487750713	0.201715559677135	-0.510526512071058	0.676938961049728	0.530204039484305	0.120138288643491	-0.554411654010941	0.823525658069417
332	9.141516	0.859213256835938	-5.23072265625	6.80065795898438	0.850077906112523	0.487113258034006	0.200220446974941	-0.513020541352193	0.67994116931382	0.523917866103895	0.119069213863415	-0.548088204689403	0.827902072826428
333	9.141516	1.07476501464844	-4.76788513183594	9.00347717285156	0.848713566468584	0.4899215980609	0.199153483137082	-0.515391058933206	0.681797907809662	0.519156690487637	0.118563647311842	-0.543257250904046	0.831152345166812
334	9.141516	0.776585083007813	-4.44635375976562	7.42515930175781	0.847678417806723	0.492258195368513	0.197795776186514	-0.517212703336441	0.683886515603986	0.514577742700216	0.11803524682103	-0.538498934880631	0.834318031472606
335	9.141516	0.0281414794921875	-4.27091857910156	8.57955871582031	0.845645135711807	0.495322062927265	0.198847575857586	-0.520935498657691	0.684802685983547	0.509579716539015	0.116234722373404	-0.534510369634864	0.837130906171537
336	9.141516	0.56282958984375	-3.79071716308594	7.06650512695313	0.843070451902526	0.499752198631717	0.198695629271596	-0.525255499645821	0.685801209479036	0.503769154642195	0.11549403976262	-0.529078860889242	0.840676326382189
337	9.141516	0.987346801757813	-3.35422485351563	8.83402954101563	0.840923301662264	0.504612703932575	0.195484065210678	-0.528318727012664	0.687330787300771	0.498453319295018	0.117163660787615	-0.522438903469447	0.844588816367164
338	9.141516	0.980161743164063	-3.39853271484375	9.4507470703125	0.838252989396903	0.508963195552817	0.195674196918809	-0.532690196431637	0.68768317110152	0.493287959319282	0.116503563863	-0.517733832926169	0.847572178549295
339	9.141516	1.20589233398438	-3.08897644042969	7.44970825195313	0.835629263300029	0.513488237429485	0.195073228143208	-0.537018354189608	0.689042269483789	0.486653920284337	0.115477363929628	-0.511420160813191	0.851536492191424
340	9.141516	0.664019165039063	-2.70098327636719	9.01305725097656	0.832619002141668	0.518294496059014	0.195234250651739	-0.541971560346138	0.689863668240497	0.479953067515708	0.114072016939238	-0.505429455608494	0.855294475812112
341	9.141516	0.731079711914063	-2.17048645019531	7.80237487792969	0.828904086566175	0.52462271440673	0.194136608609528	-0.547623205346902	0.690221227182375	0.472973025142494	0.114135184055925	-0.498362985258106	0.859422768307397
342	9.141516	0.62510009765625	-1.74058044433594	9.58546691894531	0.824828198536143	0.532717989613278	0.189393733903762	-0.552755818751123	0.689412717960344	0.468157141514799	0.118825282395612	-0.490837700117789	0.863110018715276
343	9.141516	1.20828735351563	-1.73998168945313	10.0572857666016	0.822223207081867	0.536658688182828	0.189595490805811	-0.55699151272322	0.690155137846017	0.462002532957389	0.117087371181988	-0.485472283557601	0.866375905370792
344	9.141516	0.959205322265625	-1.1352392578125	9.426796875	0.819813513210303	0.54082374274287	0.188190017916401	-0.560626645597309	0.691107635098143	0.456144714926482	0.116634333727639	-0.479457939755561	0.86977957908959
345	9.141516	0.501157836914063	-1.005908203125	9.95010864257813	0.818542297474137	0.543025885320566	0.187380348803116	-0.562645194355798	0.692096344923716	0.452142714871708	0.115839943517285	-0.475526589388068	0.87204103703373
346	9.141516	0.234113159179688	-0.721499633789063	9.70162536621094	0.816721820981021	0.545984802263922	0.18672456407841	-0.565434686579216	0.692697867099052	0.447720091272984	0.115104658231151	-0.471243313600576	0.874460208951922
347	9.141516	0.00239501953125	-0.53887939453125	9.93034973144531	0.813805543154087	0.549572514672787	0.188919530615317	-0.570180166979618	0.692263018021036	0.442342052108436	0.112317029495878	-0.467698583487952	0.876722829569634
348	9.141516	0.745449829101563	-0.657432861328125	8.8519921875	0.81133184079002	0.552888437602934	0.18988159385592	-0.573976025851166	0.691810266963765	0.438121074900109	0.11087004044547	-0.464449060811314	0.878632405527539
349	9.141516	0.336500244140625	-0.403560791015625	8.28497131347656	0.809053623611236	0.555999329934689	0.19051766121204	-0.577586190074342	0.692172835576222	0.432771254504939	0.108749377731253	-0.460175521733338	0.881142475449071
350	9.141516	-0.308358764648438	0.247884521484375	9.31961975097656	0.807531000498688	0.559064360252087	0.187991287908542	-0.579582513755174	0.692984747184971	0.4287846194982	0.109443103861417	-0.455213335991936	0.883630593490443
351	9.141516	-0.3592529296875	0.0209564208984375	9.24238037109375	0.805446314081371	0.561475791885325	0.18973974348955	-0.582959592105613	0.692843010149808	0.424413333035862	0.106837957228649	-0.452452758211617	0.88536554737685
352	9.141516	0.85981201171875	-0.289198608398438	8.33646423339844	0.803444725654574	0.564796010444964	0.188366768309325	-0.585592056744939	0.692513866361903	0.421315188396668	0.107510538530319	-0.448809549232121	0.88713667076893
353	9.141516	0.41912841796875	0.783770141601563	8.69511840820313	0.801881899702597	0.567698885483619	0.186288470791974	-0.587771030065315	0.693538313375898	0.416569110827573	0.107287628109274	-0.443534196314527	0.889812778934037
354	9.141516	-0.570613403320313	1.16577575683594	9.17831359863281	0.800928242393004	0.569453569096454	0.185031303245057	-0.589184638983086	0.694498648189584	0.412956521741953	0.106655575211164	-0.439766142746519	0.891756877164524
355	9.141516	0.0329315185546875	0.73048095703125	8.995693359375	0.798871829511945	0.573389991140484	0.18173529671518	-0.591524302226486	0.694103635303099	0.410267160926257	0.109099953655844	-0.435251722017201	0.893673955418504
356	9.141516	1.27235412597656	1.1927197265625	11.0404412841797	0.797166749253738	0.57795871106891	0.174610716119584	-0.592254480833039	0.692371583312994	0.412136167490608	0.11730219016462	-0.431955227911671	0.894234240712332
357	9.141516	0.686173095703125	1.05380859375	11.3302386474609	0.795683715607675	0.579450488827655	0.176421528488326	-0.594294442859101	0.690550295387051	0.412255266464418	0.117053577064333	-0.432871136180561	0.89382383026981
358	9.141516	0.400567016601563	1.02446960449219	8.92444152832031	0.793249643650648	0.582266263848813	0.178103904594103	-0.597407414106468	0.687690231144531	0.412536698439067	0.117725886782578	-0.433645182115432	0.893360213804784
359	9.141516	1.05560485839844	0.947230224609375	9.513017578125	0.791388255327552	0.584050207047841	0.180526964681146	-0.599744056466425	0.684601703011904	0.414279585505246	0.11837101022975	-0.436125972490259	0.892066387695789
360	9.141516	0.978365478515625	0.674197998046875	8.33107543945312	0.789760870623131	0.585623036403561	0.182547052745497	-0.60180400284471	0.682081030413355	0.4154484445877	0.118784297753016	-0.437962472346352	0.89111119588051
361	9.141516	1.32564331054688	0.338895263671875	9.053173828125	0.788392396626347	0.586684587589764	0.185036816948395	-0.603447682088192	0.679106014223115	0.417930516268415	0.119533777335756	-0.441153279632628	0.889435472614637
362	9.141516	0.911903686523438	0.264649658203125	8.72325988769531	0.787086043300546	0.587698840690477	0.187364972960691	-0.605194259816622	0.676984139631099	0.418846490462738	0.119312481855428	-0.443060433055143	0.888516732726226
363	9.141516	0.836460571289063	0.077838134765625	9.493857421875	0.785824483326876	0.588641289838053	0.189687409444704	-0.606895690846783	0.674966115964752	0.419640754373385	0.118985300922655	-0.444884450388246	0.887648761598356
364	9.141516	0.74006103515625	-0.108374633789063	9.27531188964844	0.784504093543591	0.589379016376625	0.192835946514832	-0.608730193375906	0.672576053641114	0.420819443159507	0.118325309574415	-0.447519638813167	0.886411469911492
365	9.141516	1.01369201660156	-0.373623046875	9.15496215820312	0.783458082063913	0.590150735488791	0.19471913889183	-0.609918858564882	0.670140384341408	0.42297854702297	0.119131942045987	-0.450148836138438	0.884970963200241
366	9.141516	0.997525634765625	-0.621507568359375	8.87953491210938	0.782332263919895	0.590160190628307	0.199166207544184	-0.611683135434067	0.667648069847977	0.424369881888219	0.117473276346247	-0.453824860740167	0.883313661797804
367	9.141516	0.874780883789062	-0.735869750976562	8.56458984375	0.781424696902981	0.590406125980564	0.201980319523233	-0.612947442064487	0.665609806601397	0.425745250851556	0.116922522794743	-0.456491173803694	0.882011866078138
368	9.141516	0.965791625976563	-1.25439147949219	9.6806689453125	0.780142402831612	0.590572634732469	0.206402021330387	-0.614793464102019	0.662672711656238	0.427660933127646	0.115787856883004	-0.460531041658779	0.880059277473468
369	9.141516	0.501157836914063	-1.29929809570313	9.4794873046875	0.778414749836446	0.591559695656169	0.210065712843018	-0.616962165568979	0.659160234297623	0.429959849029115	0.115879952940535	-0.464289685429134	0.878069999778273
370	9.141516	1.02387084960938	-1.48311584472656	10.9997259521484	0.77615302626402	0.593153469541745	0.213905215906005	-0.619428216670167	0.653836044388048	0.434519402848489	0.117877751140835	-0.469752475916393	0.874892820382245
371	9.141516	1.56035522460938	-1.73998168945313	9.39685913085938	0.774538519034159	0.593346180272644	0.21915837398611	-0.621178588731797	0.648188877197285	0.440441074808988	0.119278009010652	-0.477275067265814	0.870621195889962
372	9.141516	1.57532409667969	-1.83338745117188	8.20413940429687	0.773538166306143	0.593062175796398	0.223418801597744	-0.622069811295474	0.643164963899012	0.44650641550553	0.121110920822787	-0.484371845643845	0.866438722590947
373	9.141516	1.54778137207031	-2.18006652832031	8.49094299316406	0.77378162180447	0.591485335718088	0.226731337463759	-0.621396737952597	0.639268200060803	0.452992563352748	0.122996324414662	-0.491407433828063	0.862201042773089
374	9.141516	1.456171875	-2.46088256835937	7.99577270507813	0.77415004630927	0.589120122506337	0.2315797639205	-0.620819433802375	0.635186902478261	0.459478867341439	0.123591813695952	-0.499474804347718	0.857467190864557
375	9.141516	1.37953125	-3.13388305664063	7.17607727050781	0.77401785057423	0.587743308814986	0.235487090804699	-0.620863739620918	0.631582685663475	0.464361419579665	0.124195747980267	-0.505629423702107	0.853764781465187
376	9.141516	1.27175537109375	-3.79311218261719	7.84189270019531	0.773518136133065	0.586828980814579	0.23937719262568	-0.621293136432219	0.627528499890139	0.46925773349818	0.12515802689179	-0.511702774178287	0.849997493645011
377	9.141516	1.43820922851563	-4.13799499511719	7.59400817871094	0.772711803839633	0.586349220472013	0.243127661648698	-0.622072246384199	0.623329167295415	0.473800453226168	0.126263963526486	-0.517354173512371	0.846405381991345
378	9.141516	1.45736938476563	-4.37929321289062	7.39701782226563	0.771691510421788	0.586462054679991	0.246078180998363	-0.622984036210689	0.619159910988347	0.478050097010284	0.127996497489499	-0.522209979840893	0.843156944812172
379	9.141516	1.73219787597656	-4.56311096191406	7.63711853027344	0.770778759505786	0.586280064136084	0.24935073749903	-0.623859180878996	0.615161363518571	0.482054166320508	0.12922780787319	-0.527116859178836	0.839909513246355
380	9.141516	1.70345764160156	-4.69483703613281	6.90065002441406	0.770691525529853	0.585709940773195	0.250955051266016	-0.623457873427037	0.611742786225384	0.486899418322759	0.13166188718952	-0.531709158074849	0.836630455267455
381	9.141516	1.61843444824219	-4.94511657714844	7.48623229980469	0.769889413759829	0.585788230324345	0.253224090074424	-0.624121804368077	0.608305032672909	0.490343716730569	0.133200089687972	-0.535553112621227	0.833930812279312
382	9.141516	1.80883850097656	-5.17503845214844	7.4006103515625	0.769120202171035	0.585358533269637	0.256533627699775	-0.624849551197043	0.604425773784956	0.494198869235162	0.134227988814709	-0.540393256353998	0.830637090133761
383	9.141516	1.9303857421875	-5.2355126953125	7.13655944824219	0.768684381870786	0.584711146179062	0.259301362514539	-0.625112731677725	0.600865191328629	0.498191825047365	0.135493150241411	-0.545044858138831	0.827386070014525
384	9.141516	1.59149047851562	-5.42052795410156	7.03836364746094	0.76839334209489	0.58411229634509	0.261504296489965	-0.625093865029964	0.597394847029305	0.502371432950497	0.137220012119759	-0.549483595752685	0.824159235992993
385	9.141516	1.82260986328125	-5.61572204589844	7.03776489257813	0.768080961682132	0.583318592314324	0.264179969266951	-0.62513830716284	0.593650527561987	0.506735777346492	0.138757822190425	-0.554363121956909	0.820626465448903
386	9.141516	1.78309204101563	-5.88396423339844	6.94795166015625	0.767330530414505	0.582822178603494	0.267436282545342	-0.625801271456099	0.589611145279843	0.510618709024378	0.139916495588349	-0.559175290485613	0.817157493248766
387	9.141516	1.86392395019531	-6.06359069824219	6.44499755859375	0.766709884611473	0.582244728042383	0.270457075163349	-0.626110552045338	0.585021897486269	0.515494865230535	0.141920856312749	-0.564571037273802	0.813091639616987
388	9.141516	1.69507507324219	-5.99413513183594	6.32045654296875	0.765768324493903	0.581790972233042	0.274076883063737	-0.626987501604713	0.580527817313589	0.519494105988317	0.143127726291175	-0.569654911286871	0.809325482122902
389	9.141516	1.95613220214844	-6.18274291992188	5.90192687988281	0.764889273173235	0.581186324490725	0.277789229469905	-0.62785615755372	0.576228191640972	0.523218612608586	0.144017517012338	-0.574615982533672	0.805652175203706
390	9.141516	1.88967041015625	-6.58570495605469	5.84504516601563	0.764510062072997	0.580475262435232	0.280308463464613	-0.627804551352816	0.571842742166814	0.528069430597747	0.14623888091008	-0.579693322310934	0.801604542014502
391	9.141516	1.98726745605469	-6.84795959472656	5.44028686523438	0.763949541460601	0.579946535116703	0.282918918611443	-0.62807696647248	0.567751157543478	0.532144667637259	0.147987912644463	-0.584226530991338	0.79798429696139
392	9.141516	2.14833251953125	-6.84077453613281	6.06478820800781	0.763000912507466	0.579431180151093	0.286511980519988	-0.628963238893835	0.563258143212691	0.535859597492448	0.14911355281446	-0.58906686511236	0.794207389032453
393	9.141516	2.05732177734375	-6.88508239746094	5.50914367675781	0.762109858653625	0.579319593475354	0.289097512888821	-0.629578630005056	0.558915467164936	0.539670500587867	0.151060623538727	-0.593297825024963	0.790682223675694
394	9.141516	2.270478515625	-7.05932006835938	5.80253356933594	0.761289371423173	0.579154601016137	0.291579219218294	-0.629984983057307	0.554207663015797	0.544033810876542	0.153484247010551	-0.597857687394256	0.786771104923914
395	9.141516	2.13935119628906	-7.10302917480469	5.10438537597656	0.760444252720687	0.578647185548547	0.294774444551798	-0.630673238355714	0.549816790060247	0.547679435244526	0.1548412248918	-0.602386032395001	0.783042312425974
396	9.141516	2.23155944824219	-7.34013610839844	5.26066040039063	0.760040369868887	0.578306810532708	0.296479120784333	-0.630424973095093	0.54531685236918	0.552443557135226	0.157806810586922	-0.606787247240461	0.779041877641201
397	9.141516	2.13216613769531	-7.57484802246094	5.604345703125	0.75900366087252	0.577321939635553	0.301019635235904	-0.631422413597606	0.539919382719138	0.556590330288588	0.158805473421691	-0.612524642916208	0.774334800607389
398	9.141516	2.24712707519531	-7.55628662109375	5.1397119140625	0.758085154426049	0.576599030148846	0.304697320418548	-0.631970130230922	0.534167821211132	0.561496654734883	0.160998922775109	-0.618221883480326	0.769338059406457
399	9.141516	2.49620910644531	-7.57903930664063	5.21096374511719	0.757195157897488	0.575485019374627	0.308986221912862	-0.63240572970626	0.527515495935376	0.567265717792594	0.163457902504871	-0.624935511891779	0.763372202850791
400	9.141516	2.85426452636719	-7.82393005371094	3.92843078613281	0.757158161101963	0.573285810062181	0.313137188877404	-0.631933531049119	0.521419365265087	0.573395027762141	0.165443438710897	-0.632032614275484	0.757075454020015
401	9.141516	2.63272521972656	-7.98260009765625	4.32360900878906	0.757251656922413	0.571753799025139	0.315701633490518	-0.63102790290725	0.515817976195481	0.579426959319358	0.168444987579741	-0.637988564736014	0.75139661792248
402	9.141516	2.71714965820312	-8.2244970703125	3.1757958984375	0.757652601022089	0.568780510400246	0.320080094903291	-0.630328302492055	0.510504643252123	0.584868566684437	0.169259467215124	-0.644882733686412	0.745303624404976
403	9.141516	2.60638000488281	-8.32868041992188	2.3040087890625	0.758372215523377	0.567134790186692	0.32129381021436	-0.628513377644101	0.505610845047329	0.591040275694415	0.172749867856878	-0.650165981215892	0.739893019310906
404	9.141516	2.25670715332031	-8.44244384765625	3.49253723144531	0.758205225481966	0.565187626736855	0.325096574321236	-0.628313101347541	0.500126854876443	0.595899132157811	0.174205289032439	-0.656076272711458	0.73431358536947
405	9.141516	2.730322265625	-8.74242004394531	2.07169189453125	0.758683191189754	0.563659180997995	0.326631509629431	-0.626868782487777	0.495197111929617	0.601510889243793	0.177300154958826	-0.661111297750413	0.729038069676982
406	9.141516	1.90883056640625	-8.49992431640625	3.075205078125	0.758286757103642	0.561921139513207	0.330523564923019	-0.627064510456703	0.49001698984954	0.605535671438514	0.178301132152708	-0.666429278038544	0.723934198422818
407	9.141516	2.36268676757813	-8.69751342773437	2.07947570800781	0.757654842060895	0.559665607094566	0.335758169725104	-0.627715167637839	0.484020633546108	0.609670152311087	0.178697533891994	-0.672680038753266	0.718031167042089
408	9.141516	3.12130920410156	-8.86935607910156	1.12865295410156	0.757664866235218	0.559197278202598	0.33651501381599	-0.626463058027287	0.478563293630823	0.615240774751089	0.182997233312064	-0.676960543931496	0.712907030797217
409	9.141516	2.68361938476563	-8.77954284667969	2.22018310546875	0.756809216279072	0.558317787608825	0.339883889283742	-0.627061288498737	0.473400948830276	0.618615940720006	0.184482927723297	-0.681302274828274	0.708373672359765
410	9.141516	3.056044921875	-8.87294860839844	1.01369201660156	0.756081194770675	0.557847388698178	0.34226819577164	-0.626960300143035	0.467305635793693	0.623334761424396	0.187781812108374	-0.685880261910253	0.703069169686183
411	9.141516	3.24106018066406	-9.05197631835938	0.423319702148438	0.756426213197303	0.55753177711808	0.342020030833787	-0.625308244245608	0.463030567924135	0.62816581636247	0.191856674802999	-0.689029034708559	0.69887767575029
412	9.141516	2.86504211425781	-8.83822082519531	1.34300720214844	0.755977411721582	0.55658284464376	0.34454853071084	-0.62539090901649	0.458633091309768	0.631301749146298	0.193350365622277	-0.692727381156474	0.694798108452971
413	9.141516	2.66326171875	-8.95318176269531	0.684376831054687	0.755714871346697	0.556473533452746	0.345300216901267	-0.624930295917159	0.455072357520752	0.634327419134155	0.195849836533858	-0.695159230671017	0.691662118047925
414	9.141516	2.92312133789063	-8.9430029296875	1.57233032226563	0.75447522599195	0.556846971142873	0.347402625340402	-0.62589852596707	0.451135910462265	0.636181912257518	0.197530171256557	-0.69742228314013	0.688900566426653
415	9.141516	3.6068994140625	-9.00407592773437	0.71132080078125	0.754061149725173	0.556533171835765	0.348801678782619	-0.625610188559889	0.446879303010883	0.639461320574252	0.200009185902073	-0.700406822630198	0.685147143588777
416	9.141516	3.6835400390625	-8.83103576660156	1.15619567871094	0.754089294215117	0.556166224944341	0.349325731347273	-0.624995233601085	0.444239319123113	0.641897488171561	0.201817477751736	-0.702374940880008	0.682597354300274
417	9.141516	3.52007995605469	-8.99150207519531	0.765208740234375	0.754798545268845	0.55518870073393	0.349348912460604	-0.623729505362468	0.44257846954057	0.644271528502865	0.203077965816892	-0.704194436840066	0.680345158668139
418	9.141516	3.09556274414063	-8.9717431640625	2.11061096191406	0.755617796235282	0.554021460301024	0.349430919551286	-0.622344806466276	0.440868296064424	0.646778236638885	0.204276009058796	-0.706183663823494	0.677920308791408
419	9.141516	3.28237426757813	-9.04539001464844	1.42862915039062	0.756752281182231	0.552183250857442	0.349885184593456	-0.620597641667968	0.438691135255248	0.649929730820663	0.205388782755161	-0.70897372681995	0.674664140589512
420	9.141516	3.37278625488281	-8.89091125488281	1.38072875976563	0.758324223487911	0.55063920907427	0.348913790930538	-0.61803759765878	0.437090910539198	0.653437880600887	0.207301471175728	-0.711159614540981	0.671772359281254
421	9.141516	3.41469909667969	-9.05736511230469	0.937650146484375	0.759820805129556	0.547798018164955	0.350128084258918	-0.616350604244423	0.43561125069879	0.656014306941678	0.206843604541709	-0.714254975172861	0.668622130729315
422	9.141516	2.94467651367188	-9.02563110351563	0.921483764648438	0.762378527940687	0.545223962052939	0.348582574633741	-0.612738676729087	0.434918123724393	0.659846603155871	0.208159299997092	-0.716642907492532	0.665652047969036
423	9.141516	2.57105346679687	-9.06993896484375	1.38551879882813	0.763979862506131	0.542189282292847	0.349807878487435	-0.611268574356665	0.434575172061101	0.661434161373628	0.206604694257132	-0.719148942844826	0.663429949818431
424	9.141516	2.47465393066406	-9.10406799316406	1.06757995605469	0.76633398207892	0.539455105852743	0.348884532016643	-0.608146831531686	0.434073775092278	0.664633274125747	0.207098187362993	-0.72150408629927	0.660713397960431
425	9.141516	2.4956103515625	-9.12682067871094	1.35737731933594	0.768333654909267	0.536408291793902	0.349184105062811	-0.605668995919598	0.432933393981188	0.667632940887189	0.20695038563751	-0.724454843914152	0.657523168423599
426	9.141516	2.55428833007812	-9.1537646484375	0.755029907226562	0.770204214700257	0.53358613664365	0.349387038167797	-0.603567754712509	0.432728567508891	0.669665552595476	0.20613450252023	-0.726657981201203	0.655344752956282
427	9.141516	2.01241516113281	-9.11783935546875	1.61184814453125	0.771919305146013	0.530927356810592	0.349652296049967	-0.601482312963468	0.431888891522159	0.672079617732808	0.205814512449955	-0.729100903284229	0.652726787634082
428	9.141516	2.38124816894531	-9.31842224121094	0.812510375976563	0.77294264712537	0.527907116600066	0.351957015128028	-0.600907876716741	0.431049048211402	0.673131816018098	0.203640339703618	-0.731786030393481	0.650399736905194
429	9.141516	2.13336364746094	-9.13161071777344	1.56754028320313	0.775033530156621	0.524787147669591	0.352024824087422	-0.598653263825508	0.43138949441967	0.674920272191766	0.202329673661655	-0.733826651018588	0.648506861498637
430	9.141516	1.89505920410156	-9.20885009765625	1.78069702148438	0.777453832506264	0.521189872060516	0.352032179754729	-0.596085210262154	0.432065032594045	0.676758619979259	0.200618943342962	-0.735989758672667	0.646584189955882
431	9.141516	1.56454650878906	-9.2208251953125	2.41597595214844	0.780336601112273	0.517262719938934	0.351445682184207	-0.592697248086951	0.432490099946324	0.679457346386493	0.199461176860817	-0.73850632496262	0.644068045252599
432	9.141516	1.75674682617188	-9.14717834472656	1.64837219238281	0.78281623699356	0.512339373796737	0.353138931805615	-0.590574810775677	0.432959720015566	0.681004606240895	0.196010540472999	-0.741656421061404	0.641502627525307
433	9.141516	1.35737731933594	-9.12382690429687	1.03584594726562	0.786877820497014	0.507033654507982	0.351767208258745	-0.585598423084795	0.433688045233856	0.684827836979367	0.194673527965339	-0.74487015822727	0.638177612340021
434	9.141516	0.77838134765625	-9.321416015625	1.64956970214844	0.789083115729828	0.501290581107408	0.355043081559272	-0.584674860879237	0.435608023411602	0.684398244441993	0.188422778681218	-0.747631863441115	0.636822937119585
435	9.141516	0.595761108398438	-9.19986877441406	1.19511474609375	0.792549542656746	0.495236953209295	0.355816782362155	-0.581146888293084	0.43661512381317	0.686757255429366	0.184752582287361	-0.751070964578971	0.633844531020476
436	9.141516	0.037122802734375	-9.24896667480469	1.66992736816406	0.79499718745647	0.489118532382796	0.358807097499483	-0.579718653451807	0.438425487601191	0.686811018156874	0.178621820549245	-0.75401999516018	0.632098166523457
437	9.141516	-0.190404052734375	-9.0292236328125	0.629291381835938	0.797442612377416	0.483056034648353	0.361582836089453	-0.578205020785983	0.440415061825668	0.686814041247684	0.17252314019448	-0.756763794527	0.630511161987267
438	9.141516	-0.59396484375	-8.97054565429688	1.87649780273438	0.801588791038767	0.477285547309401	0.360074876116861	-0.573075714497616	0.441707516029734	0.690274362652916	0.170410197858152	-0.759666358747317	0.627588549810733
439	9.141516	-0.310155029296875	-9.09927795410156	1.86991149902344	0.802981549810437	0.470482314567209	0.365878425632766	-0.573828737312862	0.444390232484715	0.687922889215141	0.161062754533615	-0.762340942722916	0.626813430097331
440	9.141516	-1.6813037109375	-9.46631469726563	0.944835205078125	0.806399661325996	0.463120486764111	0.367748556696953	-0.570344067901853	0.444712312526627	0.690607416189825	0.156292131671706	-0.766648794316272	0.622753880558701
441	9.141516	-1.16218322753906	-9.32440979003906	1.08554260253906	0.810292775618501	0.45624688055878	0.367783090640187	-0.565778516596478	0.4455130104977	0.693839194363626	0.152709816116563	-0.77029665808548	0.619130657134653
442	9.141516	-1.33342712402344	-8.63943420410156	-0.123343505859375	0.81279019217987	0.448509742051171	0.371767554772337	-0.564274669193743	0.447509558267026	0.69377899432452	0.144797103570831	-0.773675776113511	0.61681406619228
443	9.141516	-2.47106140136719	-8.47956665039063	2.02019897460938	0.817087249835499	0.440407828970536	0.372034098353526	-0.560049349448983	0.453237639804869	0.693484223357592	0.136796024569551	-0.774994571623293	0.616984814737281
444	9.141516	-3.29375061035156	-7.68022888183594	-0.480800170898438	0.819885710986751	0.431766031624997	0.375986056728908	-0.558490936281858	0.45862629336158	0.691194471280285	0.125997202392611	-0.776685275367199	0.617158559866924
445	9.141516	-6.21148315429688	-7.70477783203125	4.0859033203125	0.821349227835472	0.4230926522674	0.38259384931205	-0.559115592040254	0.464227531779117	0.686937081162275	0.113027433269769	-0.778129427753254	0.617850623527113
446	9.141516	-4.21703063964844	-8.14665893554688	1.17894836425781	0.823607020158478	0.415513786160541	0.386030788741269	-0.557093332035473	0.465006459676444	0.688052332210853	0.106388419234839	-0.781739909413427	0.61446254424741
447	9.141516	-4.71399719238281	-7.53652770996094	1.95852722167969	0.8242435333118	0.406663273425428	0.394014694955145	-0.558322411425772	0.467762818129677	0.685181750249592	0.0943328293511401	-0.784743861411033	0.612599697424273
448	9.141516	-4.51461181640625	-7.48024475097656	0.322728881835938	0.8274186023651	0.397968385659803	0.396231776206194	-0.554854289675108	0.470408237699904	0.686187151681815	0.0866901014494518	-0.78761491473905	0.610038992517104
449	9.141516	-5.29718444824219	-6.7587451171875	1.32983459472656	0.827802439541261	0.386905246236039	0.406260324822112	-0.556429501478626	0.473776063908324	0.682585123740464	0.071619347761524	-0.791100860638241	0.607478474782151
450	9.141516	-6.41925109863281	-6.05999816894531	-0.3688330078125	0.827749708417532	0.376428991088079	0.416090897380731	-0.558423367744238	0.480360312927155	0.676326335522808	0.0547152864551999	-0.792183807227172	0.607824853880778
451	9.141516	-7.87422546386719	-6.04083801269531	0.253273315429688	0.82903288357841	0.36849840944547	0.420610746631402	-0.557489737138803	0.485861321989651	0.673159690399965	0.0436997818138046	-0.792557693818329	0.608229094206121
452	9.141516	-7.79518981933594	-6.00910400390625	1.02446960449219	0.827578279284676	0.360656683620464	0.43016386205271	-0.560567486748005	0.490505416757258	0.667209509024575	0.0296358643747649	-0.793303972441634	0.608104039495778
453	9.141516	-8.07001831054687	-5.57859924316406	-0.911903686523438	0.827334591901251	0.353857298138021	0.43623673114268	-0.561405010079817	0.495344726310706	0.662916296958713	0.0184902055389248	-0.793359070453368	0.608473087020697
454	9.141516	-8.29515014648438	-5.04031860351563	1.00471069335938	0.828726979802719	0.347773657090401	0.438480417329021	-0.559536961894603	0.498911080319986	0.661820309606545	0.0114009306997893	-0.79381434691489	0.608053288299032
455	9.141516	-8.98850830078125	-4.99720825195313	-0.164657592773438	0.830459885801751	0.343482025949244	0.438584628006894	-0.557036366529744	0.50232940668564	0.661343823999434	0.00684576054820069	-0.793527104155023	0.60849640141406
456	9.141516	-8.10833862304688	-4.90380249023438	1.06638244628906	0.831546830320799	0.339407129230705	0.43969611052499	-0.555451329499502	0.505371089254824	0.660358904462284	0.00192081770835351	-0.793349143046593	0.608763868578423
457	9.141516	-8.82145568847656	-4.71459594726563	0.456251220703125	0.832792019770043	0.335791400330884	0.440115424941181	-0.553579180603527	0.509088752091327	0.659074148557219	-0.00274638119353637	-0.7925104276651	0.609852178345229
458	9.141516	-8.45322143554688	-5.04450988769531	1.58370666503906	0.833911538573317	0.331268334754505	0.4414213817015	-0.551845656193743	0.511524055864275	0.65864217296819	-0.00761035967490228	-0.792845779872189	0.609374804011849
459	9.141516	-8.93222534179688	-4.33139282226563	1.20110229492188	0.833657455071968	0.325288100149999	0.446321520323336	-0.552045670060503	0.514437388901816	0.656200998983796	-0.0161501012498555	-0.793436717577833	0.608438451635771
460	9.141516	-8.71128479003906	-4.45593383789063	1.27295288085938	0.833314094068548	0.319249528970109	0.451295201480227	-0.552322547508162	0.514750955019987	0.655721936357254	-0.022965716640463	-0.795682846716187	0.605277938884951
461	9.141516	-7.99637145996094	-4.12122985839844	0.237705688476563	0.834079174822643	0.314622795112345	0.453127384874137	-0.550983929237275	0.51532911179944	0.656393644282342	-0.0269933297211028	-0.797150176144807	0.603177384210377
462	9.141516	-8.01613037109375	-4.00028137207031	0.58677978515625	0.832191082840227	0.309403854230292	0.460138301631858	-0.553285194395539	0.518004077318326	0.65233984206415	-0.0365170549730038	-0.797459109214403	0.602266945653727
463	9.141516	-8.97294067382813	-3.31590454101563	-1.74656799316406	0.829578577127377	0.305359577409776	0.467498569896678	-0.556459617254417	0.521648600264514	0.646711243297301	-0.0463905026528498	-0.796641868298545	0.602668777138338
464	9.141516	-8.42448120117188	-3.41170532226563	-0.198187866210938	0.828110570631783	0.302169273040156	0.472151049176307	-0.557870138006239	0.526729595058761	0.641355473049178	-0.0548980138876105	-0.794512217728348	0.604761559584915
465	9.141516	-9.4794873046875	-2.96263916015625	1.16577575683594	0.828224092082464	0.298550628505003	0.474249275712095	-0.557120228049182	0.530038666358256	0.639277767221408	-0.0605136744265811	-0.793679112982337	0.605319387450101
466	9.141516	-8.76936401367188	-3.07819885253906	0.957409057617188	0.828672090689958	0.295262556350331	0.475523489355681	-0.556050596878949	0.531558774421797	0.638946792030262	-0.0641116200239835	-0.793892494077545	0.604668841619308
467	9.141516	-8.19396057128906	-3.08418640136719	1.26696533203125	0.829114479548812	0.291323771891875	0.477178834121124	-0.554961512151249	0.532245535334954	0.639321836125444	-0.0677266552644034	-0.794886878773767	0.602965960996139
468	9.141516	-8.47178283691406	-2.67344055175781	0.20357666015625	0.829304820168679	0.286021332803808	0.480047198123403	-0.553847629015917	0.534801763027824	0.638153491015899	-0.0742045758591929	-0.795096768603335	0.601925916935043
469	9.141516	-9.05197631835938	-2.404599609375	0.661025390625	0.830477303674804	0.280158082351624	0.481475749102787	-0.551369206150679	0.536559958313325	0.638823457336668	-0.0793690530987927	-0.795999283936779	0.600071406902826
470	9.141516	-9.7477294921875	-2.21060302734375	0.856818237304688	0.830435147722688	0.274458540487342	0.484819528258048	-0.550520857969465	0.537763848191939	0.63854273820815	-0.0854649072272489	-0.797171595788106	0.597673151899332
471	9.141516	-9.50104248046875	-2.13515991210937	0.06945556640625	0.829856196243788	0.269115249878294	0.488790012007953	-0.550269805506352	0.539814222560045	0.637027272783431	-0.0924220466327875	-0.797607414336676	0.596054173621299
472	9.141516	-8.15204772949219	-2.47465393066406	0.58677978515625	0.830814129545354	0.263415531255184	0.490265377159499	-0.548031412240069	0.540740430106257	0.638170320875748	-0.0970023368066572	-0.798881746657194	0.593614775348457
473	9.141516	-8.71607482910156	-1.4992822265625	-0.167052612304688	0.830722899910422	0.256687452036016	0.493974711429317	-0.5465072929265	0.544953119276415	0.635889830528099	-0.105968119463201	-0.798209026357234	0.592986600100937
474	9.141516	-10.1866168212891	-1.4178515625	0.401764526367188	0.829942386857865	0.249874243465808	0.498756951780183	-0.545943691845777	0.547544112227793	0.634145827470687	-0.114634723493684	-0.798597713255597	0.590847334387199
475	9.141516	-9.81	-1.12206665039063	0.06945556640625	0.829845004035282	0.243901466062516	0.501865862686673	-0.544888652606001	0.547993065549489	0.634665231733148	-0.120223232109687	-0.800134785496937	0.587648448903655
476	9.141516	-10.1794317626953	-1.11248657226562	-0.355660400390625	0.829363671281688	0.238113988274654	0.505428164377588	-0.544150662930406	0.549419119911165	0.634065206984614	-0.126712101989349	-0.800899718606505	0.585238142934534
477	9.141516	-11.0673852539063	-1.09392517089844	-0.177830200195313	0.827378120712766	0.233369493538246	0.510866053727897	-0.545546373741595	0.550148482052153	0.632230813701063	-0.133508799197686	-0.801795065575621	0.582494698134993
478	9.141516	-10.6949597167969	-1.06458618164063	0.020357666015625	0.825805039025147	0.230751512045637	0.514586996735566	-0.547053855372334	0.549479577576815	0.631509519443904	-0.137033269109886	-0.803010543837787	0.579996508301904
479	9.141516	-10.1345251464844	-1.18613342285156	-0.488583984375	0.82286727091548	0.228893468554334	0.520093486316909	-0.55054127405003	0.547760147492347	0.629970734547671	-0.140690298256421	-0.804715229675895	0.576749199482922
480	9.141516	-9.838740234375	-1.2214599609375	-0.588576049804688	0.819587129298641	0.227639935292566	0.525791781362176	-0.554484194931469	0.546262666050154	0.627809188568453	-0.144305977212361	-0.806087563196316	0.573932596566018
481	9.141516	-10.3381018066406	-1.54059631347656	-0.846040649414063	0.816655830836103	0.227583408082589	0.530357470322524	-0.558527797803073	0.54306902589442	0.626995001730744	-0.145327055439251	-0.808258514016153	0.570612146276048
482	9.141516	-9.46811096191406	-1.84236877441406	-0.513731689453125	0.814379017492919	0.228629428966014	0.533399850091789	-0.562115561256022	0.53925138608701	0.627083757082789	-0.1442668072049	-0.810516210087074	0.567671173766109
483	9.141516	-8.98491577148438	-2.1124072265625	-1.22625	0.811595694985117	0.229656941818237	0.537187227097146	-0.566421420098379	0.534551202711947	0.627233438627873	-0.143105565004861	-0.813334310572169	0.563922065990269
484	9.141516	-9.03221740722656	-2.78241394042969	-0.7137158203125	0.810011217272745	0.230229834803038	0.53932926034	-0.569303577263658	0.529285449184926	0.629086917838794	-0.140624552646853	-0.816609537323486	0.559797819525224
485	9.141516	-8.91845397949219	-3.19914733886719	-1.19691101074219	0.808172578026237	0.230844315717693	0.541819145128018	-0.572626476577346	0.523064017177275	0.631270902431741	-0.137680799129872	-0.820435820668016	0.55491356238225
486	9.141516	-8.6747607421875	-3.22130126953125	-0.891546020507813	0.805721202148389	0.23108520425711	0.545355822176682	-0.576606390316467	0.516543200502781	0.633015159897896	-0.135419404277116	-0.824489387674453	0.549435013952912
487	9.141516	-9.24776916503906	-3.63384338378906	-0.303568725585938	0.802901897699995	0.231469738517539	0.549336238400826	-0.581055739765293	0.509694448308032	0.63449649065206	-0.13312689418579	-0.828633410812401	0.543731459941258
488	9.141516	-9.25435546875	-4.08051452636719	-0.947828979492188	0.800145434823751	0.232236118946731	0.55302230351702	-0.585543482961338	0.502305690737237	0.636260813357614	-0.130023508229152	-0.832919790921999	0.537901951286884
489	9.141516	-9.57947937011719	-4.39007080078125	-1.0777587890625	0.796674326327342	0.234857406475192	0.556912934303579	-0.591314011600066	0.493621228462929	0.637719234848837	-0.125130961221885	-0.837364963104198	0.532129834823412
490	9.141516	-8.13468383789063	-4.85590209960938	-1.59268798828125	0.794624604368363	0.238498332976341	0.558292291994014	-0.595696189300643	0.48371367276956	0.641223153690254	-0.117122961818402	-0.842104285669708	0.526443333960642
491	9.141516	-7.81315246582031	-5.29898071289062	-1.33402587890625	0.792564196057588	0.242383325742849	0.559546529369476	-0.599919355169304	0.474356769341324	0.644268905561419	-0.109264643965172	-0.846307260267746	0.521368640020923
492	9.141516	-7.04255493164063	-5.80792236328125	-1.76033935546875	0.790883450605736	0.24734229646973	0.559754549722506	-0.603703655908085	0.465143631693884	0.647443663756035	-0.100226061486908	-0.849978346942853	0.51719584910082
493	9.141516	-6.26297607421875	-6.08155334472656	-1.33462463378906	0.788896119566048	0.252053479539609	0.560456917153859	-0.607581895951925	0.456639129481783	0.649865328462432	-0.092125741490075	-0.85319971218824	0.513383968270152
494	9.141516	-5.75882446289063	-6.98028442382813	-1.16098571777344	0.788385064138895	0.257048320294499	0.558905315484196	-0.609621406418182	0.44832067641763	0.653735659065006	-0.0825271560120062	-0.856116073981919	0.51015148376767
495	9.141516	-5.30616577148438	-7.25810668945313	-0.61072998046875	0.787429090095599	0.262230032859968	0.557844815282421	-0.611973308014409	0.440906897842591	0.656574274330577	-0.0737841334510289	-0.858391820383375	0.507660698055106
496	9.141516	-5.27922180175781	-7.67304382324219	-0.686173095703125	0.78853155743686	0.266839387567128	0.554089094071524	-0.611721319192136	0.433142882581122	0.661954885860925	-0.0633641110727051	-0.860920428676261	0.504778173969368
497	9.141516	-4.6128076171875	-8.04367309570313	-0.123343505859375	0.788146863935917	0.270937547832063	0.55264578713922	-0.613050016257009	0.425395384670916	0.665739021139638	-0.0547192693231588	-0.86349963050104	0.501372306464276
498	9.141516	-4.06973693847656	-8.38137084960938	-0.0616717529296875	0.786543372365944	0.273922803225655	0.553458057363164	-0.615641521209182	0.417951597911613	0.668058365089738	-0.0483222593682625	-0.866188639775498	0.497375310578861
499	9.141516	-3.10693908691406	-8.73643249511719	-0.334703979492187	0.786969610946941	0.276846686806884	0.55139345611829	-0.615667988770636	0.410868920549229	0.67241330870963	-0.0403950374321146	-0.868644140100399	0.493786997419025
500	9.141516	-2.39382202148438	-8.82864074707031	-0.5891748046875	0.78749599649766	0.279393368382741	0.549353621271312	-0.615443959353838	0.403986161521287	0.676774640625791	-0.0328449142947573	-0.871053687784537	0.49008844569315
501	9.141516	-2.14533874511719	-8.91186767578125	-0.989741821289063	0.787005452642876	0.282950191882276	0.548234991973484	-0.616395370795794	0.398159456918452	0.679356897166666	-0.0260607822579983	-0.872587093521436	0.487762852058164
502	9.141516	-1.78249328613281	-9.05197631835938	1.120869140625	0.786629016939839	0.287258690040497	0.54653200702656	-0.617140669148861	0.392716539822502	0.681843907234154	-0.0187665710975404	-0.873645330981663	0.486201245847008
503	9.141516	-1.57053405761719	-9.32740356445313	0.218545532226563	0.786987846849325	0.290128808271662	0.544495549589093	-0.616850477717358	0.387270778317708	0.685212983240294	-0.0120671890401187	-0.87512663019249	0.483743489957858
504	9.141516	-0.934656372070313	-9.29866333007813	1.15320190429688	0.787465921273335	0.292522148324301	0.542520244389897	-0.616328961602111	0.382284206611459	0.688474688326239	-0.00600282630115195	-0.876521293589142	0.481325656869874
505	9.141516	-0.8047265625	-9.35554504394531	0.634081420898438	0.787385029260596	0.294035507856121	0.541819098792285	-0.616459971586797	0.37753557913897	0.690973219390888	-0.00138532577252098	-0.878071754815058	0.478526983845748
506	9.141516	-0.546064453125	-9.41961181640625	0.44786865234375	0.786754573437179	0.294992934257923	0.542214357900622	-0.617260866199037	0.372427159238987	0.693027441102005	0.00250284536042061	-0.87993021302776	0.475096364926131
507	9.141516	-0.339494018554688	-9.40524169921875	-0.009580078125	0.786653211637187	0.29657195492831	0.541499584645177	-0.617352290057444	0.367520698059619	0.695560699334429	0.0072714910251252	-0.881461066665891	0.472200713013545
508	9.141516	0.643661499023438	-9.42021057128906	-0.0496966552734375	0.786538478148587	0.297985967518036	0.540889624187823	-0.617434961999744	0.363216416560514	0.697744869161582	0.0114581888655954	-0.882767352082801	0.469670642051045
509	9.141516	0.9340576171875	-9.52678894042969	1.05380859375	0.78614141365052	0.297484913529661	0.54174200867739	-0.617886328751449	0.358331331902847	0.69986794562888	0.0140770197704965	-0.88493015701748	0.465510960897162
510	9.141516	0.810714111328125	-9.52619018554688	0.105380859375	0.784735734159429	0.296766536727428	0.544168586204744	-0.619659935221203	0.355023990992201	0.699985378777031	0.0145393333725047	-0.886503010992505	0.462494345139815
511	9.141516	0.642463989257813	-9.49146240234375	0.819695434570313	0.783978170414198	0.296469649607196	0.545420915601697	-0.620576785793414	0.351338310271189	0.701031985482903	0.0162074442254881	-0.88806933208932	0.459423747921356
512	9.141516	0.818497924804688	-9.608818359375	0.61552001953125	0.783049799513333	0.295811297269495	0.547109392982671	-0.621716423683998	0.34771656364092	0.701827528593265	0.0173695136290138	-0.889712800727004	0.456190127270202
513	9.141516	0.750838623046875	-9.26932434082031	0.143102416992188	0.781913938043347	0.295288917728354	0.54901279453248	-0.623113278710101	0.344152156750656	0.702345452679108	0.0184508912709866	-0.891270861226086	0.453095813863488
514	9.141516	1.48311584472656	-9.40105041503906	0.447269897460938	0.781192802294458	0.295372890460448	0.549993328345329	-0.623958818920806	0.340727469571027	0.703263950285153	0.0203272707043076	-0.892557923644603	0.450474366645816
515	9.141516	1.14242431640625	-9.54355407714844	0.834065551757812	0.779386446124528	0.294803698746972	0.552854001344372	-0.6262176250233	0.338073265542561	0.702536798492127	0.0202052890985722	-0.893754578354983	0.448100993038344
516	9.141516	1.46994323730469	-9.46691345214844	0.8286767578125	0.780136141963567	0.294648229141953	0.551878628926428	-0.625180041902229	0.33448302332352	0.705174462325094	0.0231843742492675	-0.8951555888067	0.445150487609304
517	9.141516	2.11599975585938	-9.45972839355469	0.811312866210938	0.779626433636798	0.293767958844345	0.553066913068569	-0.625794137020331	0.331954561707092	0.705824246560595	0.0237554634925826	-0.89638527169866	0.442638817362387
518	9.141516	2.29083618164063	-9.30345336914062	0.680784301757813	0.781684954963647	0.292684672204686	0.55073070900388	-0.623115496131117	0.329164357059846	0.709491299821675	0.0263763087780079	-0.8977675137238	0.43967918035476
519	9.141516	1.86272644042969	-9.61121337890625	1.22984252929688	0.781493399830901	0.289946804122073	0.552448112314755	-0.623439568460252	0.328395530977722	0.709562879322161	0.0243139980018729	-0.89893671969347	0.437403250431348
520	9.141516	1.19870727539063	-9.28489196777344	1.20409606933594	0.782413565248484	0.287151667068551	0.552605585399666	-0.622300976977029	0.326468776103579	0.711448966745238	0.0238852877016624	-0.900534318240667	0.434128362010852
521	9.141516	1.2693603515625	-9.47589477539062	1.32743957519531	0.78264405951546	0.284615727087217	0.553590249191382	-0.622055662415927	0.325191346202	0.71224808965108	0.0226942495236779	-0.901800685434396	0.431555899958061
