// Start Time: Unknown
// Update Rate: 100.0Hz
// Filter Profile: human (46.1)
// Option Flags: AHS Disabled ICC Disabled 
// Firmware Version: 4.0.2
PacketCounter	SampleTimeFine	Acc_X	Acc_Y	Acc_Z	Mat[1][1]	Mat[2][1]	Mat[3][1]	Mat[1][2]	Mat[2][2]	Mat[3][2]	Mat[1][3]	Mat[2][3]	Mat[3][3]
1	9.141516	0.041912841796875	-0.08861572265625	9.06395141601562	0.90793091445337	0.418799228481667	0.0163908756028626	-0.418988125195966	0.907931633584796	0.0104450792631296	-0.0105074033251637	-0.0163509926060749	0.999811101916837
2	9.141516	-0.123942260742188	0.157472534179688	9.09808044433594	0.907875752533038	0.418570396450381	0.0236736388825582	-0.418874310239193	0.90799381926771	0.0095674653527978	-0.0174908600191927	-0.0186023489647884	0.999673958062718
3	9.141516	-0.094603271484375	0.168848876953125	9.13041320800781	0.907938420984181	0.41825730543342	0.026620483698235	-0.41859960926843	0.908129476151852	0.00867304240052167	-0.0205472825714351	-0.0190179124968763	0.999607987254599
4	9.141516	-0.10298583984375	0.16046630859375	9.09089538574219	0.908036550908489	0.417969178275617	0.0277738766797083	-0.418325354243029	0.908259411179688	0.00829095898988925	-0.0217605195631683	-0.0191470106056439	0.999579847622594
5	9.141516	-0.075443115234375	0.141904907226563	9.08550659179688	0.908144605617789	0.417734208222704	0.0277760070539489	-0.418090125948165	0.908367816600159	0.00827987618911695	-0.0217720433574234	-0.0191321991838524	0.999579880290931
6	9.141516	-0.0329315185546875	0.15567626953125	9.1154443359375	0.908292373129048	0.417425617556089	0.027582942618932	-0.417767361145855	0.908520548067375	0.00780036541351598	-0.021803597795563	-0.018608265563265	0.999589083361706
7	9.141516	-0.0293389892578125	0.105979614257813	9.05137756347656	0.908351576404297	0.417301104112229	0.0275173063824213	-0.41763205513145	0.908586398094289	0.00736367603363278	-0.0219289801521014	-0.0181809159494532	0.999594204727462
8	9.141516	-0.070653076171875	0.119152221679688	9.06395141601562	0.908503381981273	0.416993087590663	0.0271729613806511	-0.417314245761863	0.908733697923373	0.00720323140811429	-0.0216892879734685	-0.0178838239791482	0.999604793719542
9	9.141516	-0.0526904296875	0.13172607421875	9.12083312988281	0.90865722690892	0.416678038371082	0.0268599390434754	-0.416984872818149	0.908887986587913	0.00680027036246035	-0.0215791526020754	-0.0173793030757309	0.999616076300086
10	9.141516	-0.058677978515625	0.126337280273438	9.07532775878906	0.908800903957691	0.416382894557051	0.0265744630420976	-0.416680421629259	0.909029080939644	0.00659971490976257	-0.0214089513182443	-0.0170708853408077	0.99962505054502
11	9.141516	-0.022752685546875	0.0736468505859375	9.10466674804688	0.908957418405411	0.416066516104951	0.026173759799834	-0.41635760994008	0.909176824994568	0.00662129426789063	-0.0210416769948366	-0.016916118617649	0.999635479942643
12	9.141516	-0.04071533203125	0.09340576171875	9.09987670898438	0.90909327282095	0.415772258703805	0.0261314026418315	-0.416064411610425	0.909310393468958	0.0067092265276578	-0.0209720457505798	-0.0169716593668543	0.999636001790337
13	9.141516	0.35685791015625	0.60593994140625	9.20825134277344	0.908966920749697	0.416139306318905	0.02464172719667	-0.416408795005915	0.909151943202998	0.00681612880855558	-0.0195666150505581	-0.0164566675433759	0.999673109405685
14	9.141516	-0.273630981445313	-0.289198608398438	9.00347717285156	0.908843897276747	0.416356939132012	0.0254886174485204	-0.416654687105397	0.909033769205157	0.00751519512521196	-0.0200410103517438	-0.0174500911541553	0.999646863758794
15	9.141516	-0.204774169921875	-0.496966552734375	9.40344543457031	0.908439616870349	0.417163796920035	0.0266801244321227	-0.417513103169926	0.908626632102541	0.00896951032169998	-0.0205005166245225	-0.0192875600647751	0.999603780927661
16	9.141516	-0.271834716796875	-0.315543823242187	9.22022644042969	0.907994525590521	0.418007013506997	0.0285670816956644	-0.41835054325136	0.908258206664529	0.00706066482896634	-0.0229948789720131	-0.0183620991582181	0.999566940657587
17	9.141516	-0.28021728515625	0.04550537109375	8.94420043945312	0.907791222791085	0.418372063135829	0.029663320969456	-0.418775973355116	0.908047450663989	0.00874708426313321	-0.0232761672949522	-0.0203628124310155	0.999521673554884
18	9.141516	-0.068258056640625	-0.209564208984375	9.12861694335938	0.907812121932566	0.418265865695844	0.0305092914699595	-0.418756189090118	0.908023418940583	0.011692936080255	-0.0228123951178734	-0.023390943742438	0.999466086658184
19	9.141516	-0.0245489501953125	-0.53408935546875	9.89921447753906	0.907372998569543	0.419380497751664	0.0281822563412374	-0.419798695502177	0.907553181271061	0.0107832471662068	-0.0210546128339435	-0.021615301763877	0.999544637326453
20	9.141516	0.051492919921875	-0.168250122070313	9.41482177734375	0.907619967002664	0.419034166566064	0.0252262313548737	-0.419419653688292	0.907707573907491	0.0124142809284982	-0.0176960333995712	-0.0218478264654072	0.999604683302684
21	9.141516	-0.15088623046875	-0.511336669921875	9.35913757324219	0.907980812191692	0.418402263033755	0.0225918343643862	-0.418777124904799	0.907956468553834	0.0155167930875724	-0.0140201408047744	-0.0235498938317075	0.999624348519148
22	9.141516	0.7616162109375	-0.899329833984375	9.33758239746094	0.908816206024358	0.416896519186784	0.0158239046204089	-0.417123014230399	0.908714741613034	0.0156814978398954	-0.00784185353335673	-0.0208521141637922	0.999751816536515
23	9.141516	0.576600952148438	-0.220341796875	10.1393151855469	0.909277198983645	0.416099317763039	0.00873688534834249	-0.416190812192347	0.909097936126629	0.0180596339104184	-0.000428083089177794	-0.0200574247458934	0.999798737975515
24	9.141516	0.652642822265625	-0.237705688476563	9.67168762207031	0.909763774107389	0.415126103592845	-0.000439815533604703	-0.415021092980967	0.909556473970964	0.021552564543247	0.00934706920721458	-0.0194252097370908	0.999767619761665
25	9.141516	0.928668823242188	-0.4742138671875	8.87713989257812	0.910353224387146	0.41374994290116	-0.00824570174173307	-0.413449409956269	0.91018751677543	0.0248650299213575	0.0177930395025762	-0.0192267796435958	0.999656810455367
26	9.141516	1.29031677246094	0.4215234375	9.02024230957031	0.910912410241985	0.412217573218104	-0.0177553709427519	-0.411648211793878	0.910890648350003	0.0287049904269972	0.0280059028428038	-0.0188387653175084	0.99943022284063
27	9.141516	1.92499694824219	0.0508941650390625	9.31602722167969	0.911668345261308	0.40995424353178	-0.0282550253724127	-0.409076828230321	0.911933257205812	0.0321540511758514	0.0389483870465755	-0.017755354468022	0.999083465249118
28	9.141516	2.18545532226562	-0.167052612304688	9.29626831054687	0.912501399586591	0.40715588875977	-0.0395635943862055	-0.405874436620465	0.913192836068519	0.0366713219172213	0.0510601356298054	-0.017404780991973	0.998543907972047
29	9.141516	2.8979736328125	0.065863037109375	8.43346252441406	0.913077121850574	0.404402464214984	-0.0524291568683088	-0.402549028785269	0.914408928310536	0.0425510428781084	0.0651494357389997	-0.0177470775855153	0.997717691664363
30	9.141516	3.44463684082031	0.058677978515625	8.04666687011719	0.913349112189139	0.40186471830726	-0.0655602581076248	-0.399325995018656	0.915516962565835	0.0486563557676618	0.079574801072154	-0.0182603240402457	0.996661633454541
31	9.141516	4.08051452636719	-0.45265869140625	7.37546264648438	0.913314342664064	0.400049526803565	-0.076271145188417	-0.396717681188293	0.916268008661531	0.0553896897988957	0.0920434295139698	-0.0203300862683205	0.995547434668801
32	9.141516	4.263134765625	-0.299976196289063	6.84017578125	0.913478792240609	0.397792337710781	-0.0855438611779426	-0.393740278301085	0.917218154482015	0.0606584728788349	0.102591858205336	-0.0217281648373654	0.994486197733673
33	9.141516	4.37510192871094	-0.291593627929688	8.11612243652344	0.912905140417159	0.39661475095015	-0.0964414015279685	-0.391754051871911	0.917714759474461	0.065790448278404	0.114599159865457	-0.0222791286069166	0.993161957077821
34	9.141516	4.8427294921875	0.047900390625	7.92511962890625	0.912539781848241	0.394604523592905	-0.107510076292326	-0.38874012800737	0.918544298529761	0.0718156286283316	0.127091539534223	-0.0237411372618311	0.991606826812087
35	9.141516	5.2115625	0.422122192382813	8.07899963378906	0.911338958399956	0.392633952523917	-0.123692692702235	-0.385205583614624	0.919344316863209	0.0801416583521751	0.145182510153943	-0.0253890995658874	0.989079082969928
36	9.141516	5.41813293457031	0.633482666015625	7.96224243164063	0.909447798192294	0.391512333318627	-0.14008138785218	-0.382215978735957	0.919760052160349	0.089176185435953	0.1637548410341	-0.0275597407353031	0.986116023969036
37	9.141516	6.40308471679687	0.827479248046875	7.36288879394531	0.907673205436493	0.389850135414806	-0.155390553283332	-0.378938098044322	0.920450465822232	0.095795917544476	0.180375358580917	-0.0280679868300839	0.983197293594786
38	9.141516	6.59468627929688	0.75922119140625	6.48930541992187	0.906361358869561	0.386898865165067	-0.1697596986393	-0.374663866401554	0.921717225202691	0.100321204028315	0.195284598371608	-0.0273244377551713	0.98036590145731
39	9.141516	6.76473266601563	0.31374755859375	6.1743603515625	0.905444020767463	0.383979587207655	-0.180916560503146	-0.369939072440377	0.922849361071158	0.107210724521887	0.208125462013667	-0.0301452048988531	0.977637488378593
40	9.141516	7.0078271484375	0.6083349609375	5.72230041503906	0.905114699619591	0.380064678021009	-0.190573400697276	-0.364863252068753	0.924449769729866	0.110758433250978	0.218270904662879	-0.0307158553060854	0.975404710061657
41	9.141516	7.42396179199219	0.661025390625	6.08275085449219	0.904440805869943	0.37642775652776	-0.200721131903958	-0.359873585783843	0.925905599079849	0.114846958373592	0.229080402768128	-0.0316380421022545	0.972893212721483
42	9.141516	7.45270202636719	0.911903686523438	6.02048034667969	0.903723436104777	0.372429405988719	-0.211140447545857	-0.354576540015998	0.927505170548387	0.118362307667142	0.239915460746611	-0.0321013420420007	0.970262889908629
43	9.141516	7.70777160644531	0.70892578125	5.77978088378906	0.903277063799829	0.367691686838789	-0.221118451158663	-0.348485422856633	0.929362268631522	0.121834657222418	0.25029673603464	-0.0329938944914936	0.967606814184713
44	9.141516	7.67304382324219	0.45744873046875	5.60973449707031	0.902390976288961	0.362975876490534	-0.232247796541077	-0.342075818960723	0.931162906073955	0.126173596422781	0.262058504907983	-0.0344115596542302	0.964438274109627
45	9.141516	7.96224243164063	0.505947875976563	5.44866943359375	0.901226816412552	0.357906902024637	-0.244321253398114	-0.33530944880351	0.933091071465087	0.130033172287778	0.274513749968894	-0.0352661570810349	0.960936261800309
46	9.141516	8.31910034179688	0.767603759765625	5.18641479492188	0.899597804963384	0.353150685031139	-0.256920966382851	-0.328325678174411	0.934818814793591	0.135336737655446	0.287968814902541	-0.0373948816008698	0.956909391987393
47	9.141516	8.29574890136719	0.726289672851563	4.52479064941406	0.89763075283514	0.348244651766206	-0.270156795363087	-0.321083878696054	0.936578266953713	0.140450321151207	0.301934056386683	-0.0393295357996191	0.952517198378942
48	9.141516	8.71906860351563	0.746647338867188	4.17032775878906	0.895401806503885	0.342649954737043	-0.284335388983296	-0.313627896110028	0.938640181827564	0.143499657979788	0.316058772526848	-0.0393143431513346	0.94792469887191
49	9.141516	8.64961303710938	0.549656982421875	3.956572265625	0.893076619055019	0.336500724846758	-0.298632574704874	-0.305577848632153	0.94085790595785	0.146316708621929	0.330206497396101	-0.0394165317375348	0.943085365225854
50	9.141516	8.92983032226562	0.168250122070313	2.83929565429688	0.890746592970108	0.330302369272235	-0.31220322222119	-0.297109684613229	0.942991574761807	0.149975748830519	0.343942353340168	-0.0408317864095543	0.938102565180072
51	9.141516	9.32979858398438	0.253273315429688	1.71902526855469	0.887772575535331	0.325009316041559	-0.325927597195395	-0.289527544060662	0.944781991713634	0.15349524215369	0.357817908100709	-0.0419038497016257	0.932850691173361
52	9.141516	9.33339111328125	0.327518920898438	1.22924377441406	0.88524344710838	0.319174445331264	-0.338336685565064	-0.281845036492831	0.946744168063842	0.155688328533192	0.370010019804907	-0.0424635571353159	0.92805680405856
53	9.141516	9.22801025390625	0.6753955078125	1.74237670898438	0.882767157974847	0.313932129003653	-0.34952648423295	-0.274778087475028	0.948455938997179	0.157887093913801	0.381076301342104	-0.0433353223157936	0.923527423737492
54	9.141516	9.65552124023437	0.53408935546875	1.59208923339844	0.881029729799435	0.308262383382648	-0.358832716179536	-0.267429498440871	0.950248031210603	0.159718948606724	0.390215425852437	-0.0447546888227629	0.919635220756132
55	9.141516	9.3549462890625	-0.123942260742188	2.5051904296875	0.879089832251303	0.302199641922698	-0.368614220092184	-0.259352420743365	0.952093082553781	0.162034206289274	0.399921728200572	-0.0468416329244759	0.91535155691026
56	9.141516	9.52619018554688	-0.105979614257813	2.07648193359375	0.876042926508668	0.29717235166441	-0.379785971726672	-0.251448997151458	0.953513648679514	0.166087698561353	0.411487779582401	-0.0500031517819132	0.910042577062316
57	9.141516	9.58666442871094	0.355660400390625	1.91481811523438	0.871788315456765	0.292490299602307	-0.392981625106834	-0.244124530605732	0.954879838938128	0.169138129190396	0.42472149296873	-0.0515161899605204	0.90385714334864
58	9.141516	9.87466552734375	0.305963745117187	0.18920654296875	0.868140486057922	0.287362410852138	-0.404666456846082	-0.23576490251079	0.956241285249645	0.173255635198933	0.436745929816402	-0.0550040836061726	0.897901744945098
59	9.141516	9.71000793457031	-0.253273315429688	0.162861328125	0.865997426706755	0.28219999608417	-0.412809422309343	-0.227440160887414	0.957492616367054	0.177422836236156	0.44533069751903	-0.0597582781936474	0.893369754376398
60	9.141516	9.60283081054687	-0.520916748046875	-1.05440734863281	0.863578933857879	0.278308304206702	-0.420447277082964	-0.219062773325936	0.958149194278473	0.184286795094666	0.454139765204104	-0.0670418474768045	0.888404448630948
61	9.141516	10.4291125488281	-0.218545532226563	-0.897533569335938	0.862096054705501	0.274901228115822	-0.42569908062107	-0.212886839893858	0.95881135575832	0.188042488467098	0.459858223652919	-0.0714849554053498	0.885110340742598
62	9.141516	9.79443237304688	-0.208965454101563	-1.32923583984375	0.862031542275785	0.27064451610385	-0.428547740659712	-0.208740586274623	0.960039657434161	0.186416801269163	0.461875511110254	-0.0712418560722016	0.884078961507415
63	9.141516	9.77467346191406	0.665216674804687	-0.4454736328125	0.86319838662462	0.267564538661453	-0.428132880049566	-0.206044281516512	0.960879761175227	0.185083328849962	0.460905955030955	-0.0715492991909935	0.884560002714503
64	9.141516	9.65611999511719	0.6658154296875	-0.720302124023438	0.864618863324856	0.26495972084746	-0.426884723914162	-0.202877694049337	0.96141137857569	0.185819273495556	0.459646453744677	-0.0740574606209852	0.885008830513184
65	9.141516	10.0141754150391	0.838855590820313	0.477207641601563	0.866783869660349	0.26202856121798	-0.424295600263149	-0.201024013547449	0.962232474995367	0.183570177429683	0.456371635045284	-0.0738220642513155	0.886721621229441
66	9.141516	9.70102661132812	0.2347119140625	1.98008239746094	0.868348093861952	0.261106878795427	-0.421657189826078	-0.19843520849714	0.962087717080994	0.18711144452058	0.45452728841623	-0.0788062338117458	0.887239833189087
67	9.141516	9.59265197753906	0.00239501953125	1.25738525390625	0.871363317837527	0.261078414347788	-0.41540826892206	-0.196617464352125	0.961522064754817	0.191877282921599	0.449519233224696	-0.0855183053578536	0.889167632344882
68	9.141516	9.39206909179688	0.626297607421875	2.56865844726563	0.872514982465458	0.2619097141184	-0.41245715780396	-0.196357436028727	0.960978453188455	0.194843962759303	0.447393968096941	-0.0890152467723519	0.889896018168713
69	9.141516	9.08550659179688	0.448467407226563	2.51357299804688	0.875459551538305	0.26242826911424	-0.405834913714991	-0.195937624641529	0.960351475408277	0.198326727727206	0.441790698034924	-0.0941086991242039	0.892168443669112
70	9.141516	8.32389038085937	0.353864135742188	3.65300354003906	0.876708417464921	0.265323479096114	-0.401230360499414	-0.195738583918217	0.958716111014435	0.206276089857866	0.439395900654349	-0.10230772171099	0.892448526564116
71	9.141516	8.79391296386719	0.0736468505859375	2.09384582519531	0.87955107883027	0.266882194486485	-0.393908357355599	-0.196235576014532	0.957659391756252	0.210665820880586	0.433452994492775	-0.107992516625569	0.894682132334229
72	9.141516	8.22808959960938	-0.0664617919921875	4.04518798828125	0.881518846251597	0.26976415525533	-0.387494289303252	-0.198638258798508	0.956433097516518	0.213959276771203	0.428330906945496	-0.111637943882614	0.896699282725771
73	9.141516	7.84907775878906	-0.176632690429688	4.22182067871094	0.884901107138915	0.272704754315318	-0.377600513185753	-0.202297588815922	0.955250710716699	0.215804924027478	0.41955418737463	-0.114578342844812	0.90046992576507
74	9.141516	7.34013610839844	0.193397827148438	5.77439208984375	0.887822224898991	0.276296136285706	-0.3680110624003	-0.20621041863979	0.953777601356705	0.218599063114767	0.411398784903176	-0.118189391333748	0.903760094027364
75	9.141516	7.18865112304688	0.370030517578125	5.566025390625	0.890918898140986	0.279248404712279	-0.358167342733671	-0.210625822287978	0.952743904763823	0.218896813409644	0.402368338616204	-0.119580016729513	0.907634474707856
76	9.141516	6.67372192382813	0.966989135742188	6.28992004394531	0.894206240299177	0.281899660714935	-0.347746719752775	-0.215263215661718	0.951887475101105	0.218110024365274	0.392500888907258	-0.120178267729437	0.911866347757479
77	9.141516	5.87438415527344	0.883163452148438	7.5922119140625	0.897262348476602	0.283976558985981	-0.338049688585473	-0.218910899995796	0.951097949720178	0.217923628597507	0.383403567888047	-0.121531905212398	0.915549944102539
78	9.141516	5.44747192382813	0.423319702148438	6.41925109863281	0.902258022546692	0.284569741048965	-0.323960681610377	-0.221624903240982	0.950520284548576	0.217700691145254	0.369882228572231	-0.124624440383983	0.920682293652604
79	9.141516	4.31762145996094	-0.353265380859375	9.31782348632813	0.905909696172652	0.284870232875953	-0.313331410493065	-0.223616639333714	0.950142545241123	0.21731254527941	0.359615379250484	-0.126799424856424	0.924445068602029
80	9.141516	4.62298645019531	1.02446960449219	6.80784301757813	0.910089260340593	0.28478942421143	-0.301052357688882	-0.225610414945602	0.949853129150712	0.21651552764334	0.347616856439365	-0.12912790906664	0.928702591909429
81	9.141516	3.29315185546875	-0.0568817138671875	9.88604187011719	0.913809384760358	0.285558926087786	-0.288805311681567	-0.228789265006637	0.949464292804439	0.214879103002337	0.335570976905959	-0.130282985922785	0.932962198075262
82	9.141516	2.96263916015625	0.595162353515625	9.00587219238281	0.917254339672684	0.285390692207752	-0.277842813750525	-0.231116768559279	0.949484647494129	0.212282697042566	0.3243909919254	-0.130503091818277	0.93687748792653
83	9.141516	2.39921081542969	-0.159268798828125	9.93154724121094	0.919817641597184	0.286529299430588	-0.268023257898288	-0.234707329896911	0.949261149691981	0.209322093860449	0.314400978845897	-0.129631131497324	0.940397678776094
84	9.141516	2.41238342285156	-0.221539306640625	8.67535949707031	0.922048258574453	0.287254977316513	-0.259444766504757	-0.239048224813884	0.949762402564973	0.202008229751517	0.304438754223487	-0.124241525589879	0.944394561740987
85	9.141516	1.67411865234375	0.05508544921875	9.57947937011719	0.924516513343298	0.289153364810547	-0.248313407157748	-0.24377246544702	0.949414989125948	0.197954953241536	0.292991811567205	-0.122480651703507	0.948237464094755
86	9.141516	1.254990234375	0.874780883789062	8.11851745605469	0.927778133300873	0.289610610093044	-0.235273096401357	-0.24702757950783	0.949304114472897	0.194419837484068	0.279651766186538	-0.122259530370288	0.952285407271574
87	9.141516	0.317340087890625	-0.324525146484375	10.3285217285156	0.930275976855368	0.289928879222901	-0.224784011616358	-0.250605093615758	0.949699843059758	0.187795886925428	0.267924791573358	-0.11836998388453	0.956140603141373
88	9.141516	-0.642463989257813	0.545465698242187	10.5991589355469	0.931876237594213	0.290042353778343	-0.21790390272313	-0.253296908617997	0.950202599943304	0.181537035189936	0.259706283889742	-0.113975664401241	0.958938055367747
89	9.141516	0.108973388671875	0.261655883789063	10.7344775390625	0.932837836744709	0.29131222761518	-0.212015934258098	-0.257078516961365	0.950446873326085	0.174818125781093	0.252436539459719	-0.108572220326149	0.9615029207023
90	9.141516	0.188607788085938	1.44599304199219	9.18549865722656	0.932604487610834	0.29328461178933	-0.210316442951369	-0.259712895776478	0.950032335422217	0.173169782062592	0.250595453780653	-0.106877023441855	0.962174215204647
91	9.141516	-0.187410278320313	0.75922119140625	10.2949914550781	0.932647540813398	0.294594835668741	-0.208284534740411	-0.262218291088509	0.950002279521372	0.169520608548992	0.247810678610394	-0.103486963920612	0.963265444135287
92	9.141516	-1.13224548339844	1.13404174804687	10.5512585449219	0.932493378817721	0.294338254047812	-0.209334876848546	-0.26263200510037	0.950429679176421	0.166456765670747	0.247952673625573	-0.100241793403212	0.963572028702182
93	9.141516	-1.21068237304687	0.96040283203125	11.3224548339844	0.931633313504915	0.294598063460769	-0.212770651578217	-0.262814576868482	0.950566895760686	0.16538160378148	0.250973837985745	-0.098155782759137	0.963004452200325
94	9.141516	-0.573008422851563	1.14841186523438	10.5698199462891	0.93014893657481	0.293436140499771	-0.220721968180221	-0.260808897352847	0.951120265622322	0.165375207888357	0.25846019974136	-0.0962573206105598	0.961214259870573
95	9.141516	-0.0353265380859375	0.630488891601563	9.97106506347656	0.928252132347844	0.292132679106164	-0.230231354489211	-0.257976320491631	0.951558650445711	0.167285243902556	0.267948123444224	-0.0958886466699459	0.958649659981438
96	9.141516	0.721499633789063	0.913101196289062	9.43996948242188	0.92657019712314	0.289902412327077	-0.239633597665533	-0.254624685211718	0.95239688877533	0.167649741818782	0.27682835744197	-0.0943226249529341	0.956278883452923
97	9.141516	1.15859069824219	0.60593994140625	9.00168090820313	0.924769999455102	0.287044658767638	-0.249811552936972	-0.250369563823836	0.953354718616532	0.168611571377104	0.286558073727602	-0.0933817132235432	0.953501088629144
98	9.141516	1.64897094726563	1.06159240722656	9.34297119140625	0.922988362100819	0.284318166179524	-0.259336969610503	-0.2463064514257	0.954245702788274	0.169553150062722	0.29567822952075	-0.0926192155571686	0.950787076845836
99	9.141516	1.73758666992188	0.828078002929688	9.54056030273438	0.920957159750993	0.280569187397114	-0.270404957400389	-0.241033167803012	0.955435658697903	0.170428032046812	0.306171393050082	-0.0917803528639291	0.947541790585483
100	9.141516	1.81482604980469	0.799337768554688	9.19507873535156	0.918782280669851	0.276657957549216	-0.281601660598447	-0.235689047242644	0.956682954441199	0.170904645026147	0.316685638665478	-0.0906537324458003	0.944188597186327
101	9.141516	2.46507385253906	0.746647338867188	8.65200805664062	0.916550953788344	0.272349349054741	-0.292848392823208	-0.22959560973081	0.957917174498188	0.172280419066552	0.327444964997196	-0.090667077105572	0.940510114792562
102	9.141516	3.04945861816406	0.681383056640625	7.88560180664063	0.913503168162385	0.268152724809648	-0.30595110382943	-0.222859833332464	0.958994944564714	0.175106227720056	0.340360773950689	-0.0917758817799247	0.935805391670301
103	9.141516	3.66018859863281	-0.104782104492188	7.91553955078125	0.911090515334912	0.263442312729816	-0.317036623642016	-0.216227739510234	0.960250717665938	0.176533633872828	0.350941074160688	-0.0922860069870691	0.931838856981895
104	9.141516	3.36200866699219	0.0143701171875	7.94128601074219	0.908745388320644	0.258061949424953	-0.328002819294216	-0.208697140759105	0.96158260895033	0.178337852412919	0.361424020569934	-0.0936104503956196	0.927690552356654
105	9.141516	3.81526611328125	-0.389789428710938	8.20833068847656	0.90509326264212	0.253896734618975	-0.341090360563977	-0.201889030894413	0.962577101705952	0.180793092998275	0.374228546645438	-0.0947722080632815	0.922481015227117
106	9.141516	4.761298828125	0.0880169677734375	7.20361999511719	0.901006007100028	0.248794057197179	-0.355372610471082	-0.192882259013866	0.963523049648018	0.18552565039555	0.388567380678528	-0.0986146535782136	0.916128015493619
107	9.141516	5.7911572265625	0.0712518310546875	7.58442810058594	0.895926548544577	0.245159431550911	-0.370422019775601	-0.18514967224273	0.964114073271119	0.190272574453023	0.403776198507801	-0.101886735359446	0.909166582467912
108	9.141516	5.84923645019531	-0.341290283203125	6.21208190917969	0.891295133749856	0.240293578862425	-0.384515253938402	-0.177073430141381	0.965149364162464	0.192695887851186	0.417418237373251	-0.103661472178813	0.90278253986989
109	9.141516	6.09233093261719	-1.00171691894531	6.98986450195313	0.886259505501482	0.237388068724005	-0.39773231417092	-0.170344521361297	0.965549294263514	0.196716304330426	0.43072825882505	-0.106590173912596	0.89616499701496
110	9.141516	6.58091491699219	0.07903564453125	5.90492065429688	0.880086178600198	0.232740780024984	-0.413859937116727	-0.161979708212505	0.966504972131402	0.199074641711772	0.446330474384498	-0.108165928825304	0.888306951158814
111	9.141516	7.33594482421875	0.266445922851562	5.79834228515625	0.872907954660453	0.227537649532273	-0.431576552578835	-0.152626269738252	0.967542921445163	0.201409823363077	0.463397156310103	-0.109942317633784	0.879304135278018
112	9.141516	7.96343994140625	-0.837658081054688	5.24449401855469	0.864946892985374	0.21970302050587	-0.451217746875658	-0.140656415943745	0.969175079456516	0.202275648594477	0.481749566651396	-0.111491022692652	0.869187613171137
113	9.141516	8.31311279296875	-0.262254638671875	3.43385925292969	0.855144660712397	0.211582798413837	-0.473244470300974	-0.127853296329679	0.970795014709799	0.203003876889672	0.50237550086834	-0.113091815928347	0.857221731699164
114	9.141516	8.99210083007813	-0.848435668945313	1.88847290039063	0.844769274319376	0.198999306617711	-0.4967536100841	-0.112400663621519	0.973560543641101	0.198861657145581	0.523193046573975	-0.112156782366983	0.844801688081723
115	9.141516	9.37650146484375	-0.9244775390625	-1.10889404296875	0.833640593533327	0.189938682741988	-0.51861995489148	-0.0991497386324326	0.975217721063066	0.197787072008463	0.543334786427782	-0.1134622991253	0.83181345056129
116	9.141516	9.44236450195313	-1.46156066894531	-0.0143701171875	0.826148851252475	0.18263149853105	-0.533032655020797	-0.0893378982445529	0.976503446524928	0.196111597979782	0.556324379756507	-0.114397354293012	0.823053114822669
117	9.141516	9.28608947753906	-2.20701049804688	0.678389282226563	0.819802907947919	0.174834432949541	-0.545303688943463	-0.0779487068532871	0.977459858336067	0.196204547453765	0.567315777341012	-0.118343341159732	0.814952552228113
118	9.141516	9.57169555664063	-2.47704895019531	-0.0041912841796875	0.813484242089549	0.171096577389085	-0.555850113859603	-0.0687028624188639	0.977325868592778	0.200284955188417	0.577514765670496	-0.124740161075382	0.806794018103407
119	9.141516	10.3728295898438	-1.95792846679688	-1.70285888671875	0.80754001333186	0.169149853178951	-0.565037568695675	-0.0620887606364324	0.977051233781284	0.203754441348168	0.586535687465487	-0.129457381929387	0.799510271099363
120	9.141516	10.6344854736328	-2.2752685546875	-2.58781860351562	0.805064403026862	0.168712750702542	-0.568689119580624	-0.0576749834394477	0.976421223332198	0.208026899490701	0.59037691626982	-0.134675916098003	0.795812474367486
121	9.141516	10.0728533935547	-2.23155944824219	-2.11420349121094	0.805806547032262	0.168852271802896	-0.567595559414398	-0.0559270320085933	0.975902226408399	0.210919443347073	0.589531997308587	-0.138216333326167	0.795831809713094
122	9.141516	9.80281494140625	-1.41006774902344	-1.24301513671875	0.807607443495224	0.171016580931796	-0.56437890309393	-0.0568632380951972	0.97515123079163	0.214118306641209	0.586972562701561	-0.140831126289497	0.7972639490806
123	9.141516	9.8722705078125	-1.78608581542969	-2.01181640625	0.811947802157963	0.17306901499372	-0.557483526770035	-0.0581487536684312	0.974266972268415	0.21776728219304	0.580826556742769	-0.144398693886193	0.801117674368941
124	9.141516	9.19507873535156	-1.61484191894531	0.894539794921875	0.817282986791221	0.177194510062851	-0.548316172573095	-0.0632171776232311	0.973374753593489	0.220329701856489	0.572758332942415	-0.145408715936847	0.806724362700559
125	9.141516	8.81247436523438	0.78556640625	2.54410949707031	0.82154480815587	0.180032032938643	-0.540973747337257	-0.0693072579996407	0.973335356939976	0.218665925372703	0.565915746538923	-0.142150448632807	0.812116135643657
126	9.141516	8.65619934082031	-0.899928588867188	2.62194763183594	0.824610086536006	0.180879573905238	-0.536004463532665	-0.0722781453254862	0.973426080130814	0.217295964595449	0.561065125356574	-0.140443035658655	0.81577060430221
127	9.141516	9.1729248046875	-0.68258056640625	2.52554809570313	0.828280613090533	0.185004447832955	-0.52888995099207	-0.0755609419235105	0.972175903422765	0.221730820725856	0.555195253972873	-0.143691917261039	0.819213563657148
128	9.141516	8.51369567871094	-1.06398742675781	3.64162719726563	0.832587237793719	0.189538491923997	-0.520455234907097	-0.0805696049107554	0.971078379323572	0.224756134454277	0.548002764799184	-0.145196216512281	0.823778506931911
129	9.141516	8.5118994140625	-1.312470703125	3.24345520019531	0.836858494474343	0.195773853955756	-0.511214689082236	-0.087567673178387	0.969712749428163	0.228011153697789	0.540370024002313	-0.146047189989346	0.828655812419099
130	9.141516	7.62514343261719	0.0005987548828125	4.81279174804687	0.839411550967781	0.204039844318862	-0.503741987561292	-0.0962917804356439	0.968024055838472	0.231640498053708	0.534898253056037	-0.145935496875746	0.832217933974767
131	9.141516	7.78201721191406	0.719703369140625	4.5265869140625	0.843807301437176	0.210441805130013	-0.493663331325039	-0.103956925558415	0.966578534464417	0.234347806350012	0.526480954707533	-0.146424667888449	0.837482907863799
132	9.141516	7.33295104980469	0.535885620117188	5.3025732421875	0.847672097807275	0.217213979190373	-0.484014567800699	-0.111053937634164	0.964777788333354	0.238476082814503	0.518766843133754	-0.148397797769665	0.841937679452674
133	9.141516	7.51138000488281	0.610131225585938	5.61452453613281	0.852483273688395	0.222307942976726	-0.47312941841633	-0.117235549756576	0.963318869351698	0.241397145435153	0.509438999247988	-0.150319441325545	0.847275617260868
134	9.141516	6.7779052734375	-0.3305126953125	6.14322509765625	0.858307979002547	0.227215135967705	-0.460087703778029	-0.12473822627257	0.962114240281662	0.242438783105373	0.497742692650465	-0.150696617859918	0.854132742188617
135	9.141516	5.47920593261719	-0.3496728515625	6.7491650390625	0.864003336528257	0.231943820051582	-0.446878393758212	-0.133166930567392	0.961234503319918	0.241443157348825	0.485556179109379	-0.149098269497635	0.861397064634836
136	9.141516	4.59723999023438	-0.571810913085938	7.03237609863281	0.870128899786171	0.23769743003322	-0.431712438450076	-0.143025641567267	0.960092221805208	0.240346815005757	0.471613574456016	-0.147386761226179	0.869400816082017
137	9.141516	3.99189880371094	0.707728271484375	8.26401489257812	0.875023098954599	0.24437068884933	-0.417872639361797	-0.154324853980082	0.959008293542149	0.237669796906132	0.458822858780943	-0.143478428164933	0.876866879812097
138	9.141516	2.97102172851563	1.95732971191406	8.3490380859375	0.880927524926038	0.250185630091443	-0.401713637213666	-0.164621692177589	0.957824167144189	0.235526141434719	0.443696286092494	-0.14135068210054	0.884959654660844
139	9.141516	1.96930480957031	1.22804626464844	9.9297509765625	0.886728316084716	0.254782904262559	-0.385744170596394	-0.173026658200138	0.9566816632008	0.234140920916109	0.428689478533888	-0.140875359771988	0.892400954730247
140	9.141516	1.120869140625	-0.1293310546875	9.17172729492188	0.891848387853764	0.259345323854993	-0.370602827940089	-0.181904770390761	0.955775046617387	0.23109460134892	0.41414623937895	-0.138686925332134	0.899582586064332
141	9.141516	0.81670166015625	0.79275146484375	9.11364807128906	0.895242481912351	0.264446216793396	-0.358621105072018	-0.191289000844541	0.954997687282163	0.22668907217071	0.4024293934783	-0.134341414721523	0.905540152370566
142	9.141516	-0.195194091796875	0.975970458984375	9.17172729492188	0.899293828558274	0.269854892385379	-0.3441641279574	-0.200385470046569	0.953719776787318	0.224196901760405	0.388736766091423	-0.132653399581107	0.91174930889382
143	9.141516	-0.0161663818359375	1.43401794433594	9.59863952636719	0.903020340778977	0.273197525515117	-0.331537895559222	-0.207430116133914	0.953098670708507	0.220398890229395	0.376200758983939	-0.130253736783614	0.917336880864284
144	9.141516	-0.929866333007813	0.382604370117188	8.30173645019531	0.906947638713686	0.277014258000678	-0.317346941841268	-0.214856558072449	0.952200525633019	0.217142392078247	0.362329463451334	-0.128752708121175	0.923114348315816
145	9.141516	-2.60039245605469	0.143701171875	10.1494940185547	0.909811318518278	0.280806640203647	-0.305599403653823	-0.222106224929871	0.951464945875842	0.213033522284367	0.350588347700596	-0.125944779911762	0.928022479722094
146	9.141516	-2.88420227050781	1.23882385253906	10.3925885009766	0.911508059123596	0.283343412884847	-0.298109994008086	-0.226938318051995	0.950998897485853	0.210000230429454	0.34300445762769	-0.123764321819574	0.931144636827209
147	9.141516	-2.88300476074219	0.643661499023438	11.7691259765625	0.911987401136101	0.284522810217355	-0.295509307188522	-0.229898826430414	0.951109488240075	0.206245656889112	0.339743299823469	-0.120156197700004	0.932811330537606
148	9.141516	-3.7218603515625	0.80233154296875	10.4788092041016	0.911630115381055	0.283552868165659	-0.297537062708755	-0.229938464673749	0.951877588449486	0.202626155940121	0.340674089407757	-0.116304890536124	0.932959986946694
149	9.141516	-3.44583435058594	0.412542114257813	9.92436218261719	0.910644472546076	0.282675118266511	-0.301365927294864	-0.229294670107644	0.952475081762051	0.200537210718116	0.343730415997052	-0.1135165015995	0.932182066435042
150	9.141516	-2.93569519042969	0.831670532226563	9.54295532226562	0.908104214621811	0.281809223323917	-0.309726164596528	-0.227814000855107	0.953099940355693	0.19925181230886	0.351350987476191	-0.110381453802467	0.929714159436093
151	9.141516	-2.19922668457031	-0.032332763671875	9.67528015136719	0.905962424202366	0.281332028487978	-0.316361147551677	-0.226854463526806	0.953526271741288	0.198304567464104	0.357448091771853	-0.107888548261621	0.927680399082929
152	9.141516	-1.85194885253906	0.44786865234375	9.70641540527344	0.903400672358562	0.280500480183306	-0.324325000268301	-0.225368353971089	0.954068189029639	0.197390465094108	0.364796285905518	-0.105230087421046	0.925121774952303
153	9.141516	-1.12865295410156	0.640667724609375	9.54954162597656	0.900518533329171	0.279381522435662	-0.333185137802109	-0.223076965765578	0.954581730078431	0.197510475533054	0.373233222630973	-0.103535914165093	0.921942121828966
154	9.141516	-0.74006103515625	0.668809204101563	8.89749755859375	0.897724066142937	0.277016546062524	-0.34256872927251	-0.219738914801807	0.955498395694454	0.196818762182494	0.381845924935066	-0.101413258664312	0.918645220189802
155	9.141516	-0.0556842041015625	1.03644470214844	9.49505493164063	0.894105977826681	0.274516695779907	-0.35385743478508	-0.215525879411695	0.956349667299849	0.197342111976343	0.392585144546263	-0.100179327176569	0.91424340669651
156	9.141516	0.362246704101563	0.728684692382813	9.13699951171875	0.890329810665768	0.271720320269493	-0.365350374014455	-0.2106412503157	0.957184272264277	0.198566191974729	0.403662101150575	-0.0998315405197695	0.909445199895053
157	9.141516	0.93166259765625	0.272433471679688	9.97166381835938	0.885349890816954	0.268491659895052	-0.379562642257121	-0.204864047060102	0.958156687913469	0.199916191512466	0.417356314259847	-0.0992370393224832	0.903308207077709
158	9.141516	2.03935913085938	0.304766235351562	8.83822082519531	0.88004009020626	0.263358436870564	-0.395185745389244	-0.196227234025177	0.959440333654845	0.202408297219031	0.432463076177131	-0.100581210399222	0.896024055401439
159	9.141516	2.17767150878906	1.13104797363281	10.0069903564453	0.87346585735157	0.258625309564049	-0.412517084851023	-0.189213877131821	0.960969292341397	0.201831929777277	0.448615096426581	-0.0982393425760526	0.888309364370541
160	9.141516	2.69619323730469	0.901724853515625	9.05018005371094	0.8673028673365	0.251814902460074	-0.4293890906962	-0.180977467175746	0.963090950867809	0.199256058204491	0.46371639251221	-0.0951056005478281	0.880864366437819
161	9.141516	3.60809692382813	0.7424560546875	7.40480163574219	0.859936552891603	0.246082877496443	-0.447160309513243	-0.171012010133861	0.964372530042845	0.20184279944734	0.480899175909967	-0.0971022178007978	0.871382316728588
162	9.141516	4.6702880859375	0.28979736328125	8.09097473144531	0.850092613475301	0.241928118075285	-0.467774875553705	-0.161376436765765	0.96517370818532	0.205906189039047	0.501298508048366	-0.0995514877455368	0.859528537697343
163	9.141516	5.34867736816406	0.2730322265625	5.41034912109375	0.841335066552688	0.236203828714784	-0.486171839054116	-0.150812047009048	0.966325004154488	0.208498711801225	0.519048198403313	-0.102096707323529	0.848625494601694
164	9.141516	6.43841125488281	-0.291593627929688	7.6257421875	0.830953875433942	0.230017135208318	-0.506564679396294	-0.141205768511767	0.967910266115439	0.207871709684942	0.538123208791735	-0.101201947900711	0.836768533048888
165	9.141516	7.43593688964844	0.0401165771484375	3.98112121582031	0.821810307854708	0.221511433743572	-0.524938570334299	-0.129026785423744	0.969749503571669	0.207214837706469	0.554959373780609	-0.102560153292446	0.825531046302721
166	9.141516	8.05564819335938	-0.74964111328125	5.26006164550781	0.810018823601552	0.21575182573248	-0.545271175750434	-0.119647798166358	0.971102891024198	0.206503218954062	0.574067861672383	-0.102030998904982	0.812425852282749
167	9.141516	8.17899169921875	0.214953002929687	2.1842578125	0.801678359626481	0.21175453378993	-0.558991793433503	-0.108816018271663	0.971224070182726	0.211855799224854	0.58776771081278	-0.109012948391969	0.801651604631834
168	9.141516	8.325087890625	-0.584384765625	4.69783081054688	0.791355662114133	0.208576160841968	-0.574675735670411	-0.0986639488598408	0.971251562668962	0.216646779824865	0.603342059892467	-0.114744878498024	0.789184371121976
169	9.141516	9.22741149902344	-1.08674011230469	0.961600341796875	0.78106830183464	0.201050925419766	-0.591194412403405	-0.0860124755792359	0.972365709152228	0.217040967813951	0.618493461496468	-0.118673725199561	0.776776921022617
170	9.141516	9.41003173828125	-2.88899230957031	0.77838134765625	0.768545174807821	0.194782649080606	-0.609424346327547	-0.0772874475326976	0.9738191564155	0.213782368431275	0.635110198889529	-0.117200555524905	0.763478267569652
171	9.141516	8.382568359375	-1.68369873046875	-2.49620910644531	0.758878489319485	0.185971581473027	-0.62411377915617	-0.0690189693023421	0.975928379847436	0.206882041958216	0.647564529853681	-0.113922641703833	0.75344662145543
172	9.141516	9.7764697265625	-1.580712890625	-3.16501831054688	0.751797502374711	0.184711452976597	-0.632994624434064	-0.0627298959859372	0.975644827718577	0.210195457361908	0.656403439641156	-0.118316732904786	0.745074274916264
173	9.141516	10.3033740234375	-2.75307495117188	-4.19846923828125	0.748719354041846	0.183131404337827	-0.637088861642092	-0.0574701875896344	0.975395945843196	0.21283779356841	0.660391176819901	-0.122742158926394	0.740822418667601
174	9.141516	10.4674328613281	-2.64589782714844	-4.0954833984375	0.750500903132923	0.185899897692583	-0.634184218058567	-0.0568801308451619	0.974230307379393	0.218265798737437	0.658417075349437	-0.127736197772367	0.741734736052555
175	9.141516	9.82975891113281	-0.567020874023437	-0.753233642578125	0.753857885346224	0.187219055655369	-0.629799423547554	-0.0588255307959365	0.9739266014949	0.21910392928282	0.654398842929827	-0.128124939415036	0.745215508609421
176	9.141516	9.82556762695313	-0.285606079101562	0.309556274414063	0.757775418667465	0.189964718084241	-0.624251408285575	-0.0599065828483768	0.972897879546996	0.223340362013656	0.649759660332018	-0.131845067621565	0.748618235116595
177	9.141516	9.32919982910156	-1.40647521972656	0.947230224609375	0.761644575620708	0.192522516548362	-0.618734693588002	-0.0596521623787125	0.971621674819986	0.228895042636465	0.645243488887022	-0.137427805199279	0.751514762600851
178	9.141516	9.58666442871094	-0.980161743164063	0.57240966796875	0.764857576980036	0.196746482967118	-0.613419683720941	-0.0624339725652242	0.970377112651144	0.233388642209846	0.641166816051762	-0.140210843670881	0.75448395165911
179	9.141516	9.45314208984375	0.672401733398438	1.16936828613281	0.770671059243945	0.199915260463913	-0.605061986144777	-0.0662602489393104	0.969507545602387	0.235933673795278	0.633778902973519	-0.141735696469456	0.760417842039495
180	9.141516	9.02263732910156	0.997525634765625	2.83390686035156	0.77510165652085	0.201025684506735	-0.599004253930832	-0.0681811515719452	0.969112118649935	0.237008506294939	0.628147078819091	-0.142864886009242	0.764866571185203
181	9.141516	8.73283996582031	-1.58191040039063	2.768642578125	0.780905266356087	0.20229091881504	-0.590986758855303	-0.0701229251388235	0.968518766503365	0.238860156369318	0.620701007206613	-0.145085433782193	0.77050663628351
182	9.141516	8.95198425292969	-1.46515319824219	2.57943603515625	0.785850295899295	0.204405455660485	-0.583658909065235	-0.0743898502288387	0.968187424198458	0.238912665647694	0.613926268063129	-0.144331290163239	0.776056065024875
183	9.141516	8.61069396972656	-0.370030517578125	3.47158081054688	0.791952202005305	0.20755722837845	-0.574222697815755	-0.0796135799532556	0.96752317784625	0.23991785722893	0.605370454867079	-0.144287550669317	0.782756485182892
184	9.141516	7.84009643554687	0.087418212890625	5.11636047363281	0.796733140199809	0.212127946669224	-0.565878111919211	-0.0851247707501153	0.966427712115926	0.24242782567007	0.598306005913439	-0.144980038268296	0.788042328680149
185	9.141516	7.56886047363281	-0.463436279296875	4.15835266113281	0.80331663749572	0.215009858428853	-0.555385578405648	-0.0899220999412476	0.965654017585514	0.243775171547704	0.58872438021941	-0.145887213625324	0.79506007636902
186	9.141516	6.75096130371094	0.22752685546875	6.543193359375	0.808801504207298	0.220366180481013	-0.545232861530027	-0.0951406253884818	0.963956134644971	0.248468975691161	0.580334720822993	-0.149088285859539	0.80061494791614
187	9.141516	6.66174682617188	0.647852783203125	5.95461730957031	0.81408677203617	0.222094176549405	-0.536597525468177	-0.0987705175662687	0.963472615174226	0.248927508863583	0.572282371260395	-0.149648576846488	0.806286667998672
188	9.141516	5.66601745605469	-0.0910107421875	7.22637268066406	0.819462958882481	0.224014807354085	-0.527539406211215	-0.103698401031817	0.963210281346045	0.247936676457351	0.563672866690436	-0.148469929599852	0.812545124507927
189	9.141516	5.63248718261719	0.440084838867188	6.69527709960938	0.824320191493026	0.225880193009002	-0.519109198823443	-0.108321505682015	0.962942984844762	0.246996476381835	0.555664173133091	-0.147373492679238	0.81824102827458
190	9.141516	5.48040344238281	-0.080233154296875	7.60957580566406	0.830371091303054	0.227576783787732	-0.508618381705782	-0.113964302713399	0.962861356450786	0.244765491768759	0.545431928323989	-0.145281849295036	0.825467864807704
191	9.141516	4.75710754394531	-0.15328125	8.29275512695312	0.836570851211882	0.229346501497576	-0.497543358063847	-0.11942881582322	0.962661748605701	0.242938501935116	0.534683054578776	-0.143814255281725	0.832725339547244
192	9.141516	4.07991577148437	-0.4933740234375	8.14546142578125	0.841493200706673	0.233224686674699	-0.487335037412587	-0.125786805152698	0.961811688879101	0.243096595584984	0.525420662720754	-0.143263814904604	0.838694584771515
193	9.141516	4.04039794921875	-0.594563598632812	6.64079040527344	0.848441918872047	0.236875113519451	-0.473324931622945	-0.134108225137702	0.961293150718008	0.240687478554785	0.512016888638582	-0.140732579660119	0.847368306447128
194	9.141516	2.20641174316406	-1.36037109375	9.07113647460938	0.85492841517107	0.244184999852046	-0.457680118401859	-0.146047857408672	0.95989411822228	0.23931841790512	0.497762421521974	-0.137756915069733	0.856303453263533
195	9.141516	1.47473327636719	1.16757202148438	8.09456726074219	0.863304040013774	0.248767388731911	-0.439113790263303	-0.157350090049556	0.959380708848497	0.234157222076863	0.479527980056737	-0.133054281377426	0.867380812878544
196	9.141516	0.14609619140625	0.91250244140625	11.2631781005859	0.868279591297155	0.253012803054099	-0.426702557793545	-0.167255443624521	0.959102897116805	0.228357722269506	0.467029086797397	-0.126910024162239	0.875087240137994
197	9.141516	-0.317938842773438	0.718505859375	8.85259094238281	0.874016356639623	0.255033554333476	-0.413585897354388	-0.172776129257285	0.958674348150181	0.226035181681293	0.454140746338918	-0.126100675505167	0.881960771322552
198	9.141516	-0.956211547851563	0.338895263671875	11.7751135253906	0.876797776648956	0.259206494823177	-0.405015619334526	-0.179097862217295	0.957708938649441	0.225205560722102	0.446261822938779	-0.124922303342693	0.886140397180331
199	9.141516	-1.03883972167969	0.602946166992188	9.12143188476563	0.879423396128841	0.259347308693831	-0.399191011690498	-0.181654629235631	0.957937065057153	0.222166998149939	0.440018279186764	-0.122863960797935	0.889543906234292
200	9.141516	-1.14062805175781	0.469423828125	10.0950073242188	0.881260207988701	0.261375990483256	-0.393780443159139	-0.18538648232311	0.957559924161928	0.220705332538353	0.434755446185064	-0.121497256092056	0.892315033367996
201	9.141516	-1.35977233886719	0.370629272460938	9.69384155273437	0.882767749252522	0.261489750888516	-0.390312965528814	-0.187040034321633	0.95772180710544	0.218597725870265	0.430972303565551	-0.119966871989526	0.894354976049471
202	9.141516	-1.38192626953125	0.220341796875	9.48367858886719	0.883927904638189	0.263143185388911	-0.386558046592382	-0.190008543504919	0.957438347465493	0.217275318887549	0.42728001684736	-0.11860638594074	0.896305925684415
203	9.141516	-1.66992736816406	0.298179931640625	9.04119873046875	0.885326768152043	0.262397393875354	-0.383854296942059	-0.190645344237153	0.957815808565135	0.215042390201128	0.424088276558263	-0.117202749755025	0.898004815764205
204	9.141516	-2.12138854980469	0.068258056640625	10.3979772949219	0.886137108226742	0.262288319822939	-0.382054790191154	-0.191008978430698	0.957851820484865	0.214558756877204	0.422228132154181	-0.117152581184923	0.898887466337862
205	9.141516	-2.54949829101563	-0.0293389892578125	10.8332720947266	0.885687473862047	0.26097531279526	-0.383991646725917	-0.190133311726061	0.958412502099767	0.212825749360704	0.423564661434292	-0.115487496856937	0.898474048403054
206	9.141516	-2.20521423339844	-0.316741333007813	10.3410955810547	0.88394351278562	0.259821275196944	-0.388763129886635	-0.188419968760595	0.958843983938833	0.212405578638046	0.427950676569713	-0.114503796528065	0.896519435932196
207	9.141516	-1.32983459472656	-0.0245489501953125	9.17831359863281	0.881204098767681	0.258490825141727	-0.395805292577788	-0.186580841561806	0.959467661279337	0.211209366556618	0.434358061830476	-0.112268874924037	0.893716271445341
208	9.141516	-0.956211547851563	-0.207767944335938	8.96395935058594	0.8787608921388	0.257273921611866	-0.401981869872104	-0.184955455061636	0.960025009682835	0.210103451724186	0.439966787485561	-0.110281957009864	0.891216649231662
209	9.141516	-0.848435668945313	-0.13651611328125	9.23100402832031	0.87609250380726	0.255760277305055	-0.408715800190754	-0.182424645277514	0.960524842633512	0.210031605905493	0.446299421429269	-0.109447280627289	0.888165592215321
210	9.141516	-0.144898681640625	-0.456849975585938	8.88612121582031	0.872698120002998	0.254108596174839	-0.416925428216229	-0.179404385049627	0.961052474231402	0.210219429165492	0.454105778391113	-0.108659850560144	0.884296883918545
211	9.141516	0.244890747070313	-0.261655883789063	9.72198303222656	0.86836210198994	0.252594537768088	-0.426782449636041	-0.176121607929109	0.961543866283403	0.210747651074056	0.463603752193702	-0.107839662010286	0.879455609027215
212	9.141516	0.996328125	0.0161663818359375	9.73276062011719	0.86250502170831	0.250854286937664	-0.439496546349279	-0.172673597656869	0.962253347460871	0.210362363488771	0.475677323613583	-0.105549145071595	0.873264256553808
213	9.141516	0.995130615234375	0.346679077148438	9.11484558105469	0.854746897402919	0.248032446545509	-0.455946978102425	-0.165998740993448	0.962928121182152	0.212635489571244	0.491784667683605	-0.106062900664002	0.864232897854545
214	9.141516	2.02798278808594	-0.290994873046875	8.77894409179688	0.847520514805561	0.246282586322712	-0.470163657312977	-0.159321638363687	0.963023790903233	0.217259737879519	0.506286077759234	-0.109224840712004	0.855420564189691
215	9.141516	3.02850219726563	-0.05987548828125	8.70170471191406	0.839784863310399	0.243407497529426	-0.485298025445393	-0.152870278639115	0.96371403092475	0.218828573334401	0.520953031725063	-0.10958127917319	0.846522227700628
216	9.141516	3.94579467773438	-0.1580712890625	8.16402282714844	0.831733481212616	0.238770154451155	-0.501206773271585	-0.145520069702001	0.964987729099101	0.218226011286657	0.53576424436861	-0.108570235476999	0.837358452769542
217	9.141516	4.12841491699219	-0.603544921875	8.01493286132813	0.823359589018337	0.236002882954139	-0.5161217166608	-0.140114108821894	0.965813993201175	0.218108612956591	0.549951837600896	-0.107265883551744	0.828279546134795
218	9.141516	4.57867858886719	-0.51013916015625	7.30660583496094	0.813907156258625	0.231194079245172	-0.533014482648431	-0.134215726519425	0.967420536371008	0.214671014723678	0.565279824286928	-0.103183349090868	0.818420378976802
219	9.141516	4.684658203125	0.0910107421875	5.67260375976563	0.803512144254594	0.231107973590155	-0.548595787970011	-0.128123175370595	0.967104870098466	0.219755823961017	0.581336981421569	-0.1062886389737	0.806690795321713
220	9.141516	6.04562805175781	0.51492919921875	5.90252563476563	0.793910096770995	0.226650176236568	-0.564213129816209	-0.121706339845932	0.968385201666591	0.21775598277536	0.59573007737261	-0.104210358434701	0.796395552541911
221	9.141516	6.51325561523438	0.477207641601563	5.19180358886719	0.783947323719481	0.222746266758468	-0.57949175514258	-0.114504480788603	0.969282250412205	0.217670951013644	0.610176464239973	-0.104288156954743	0.785371671762222
222	9.141516	7.22457641601563	-0.56282958984375	5.52471130371094	0.773475642098809	0.219725247339991	-0.594521863989219	-0.106886236569972	0.969773118427951	0.219352299295988	0.62474856023183	-0.106117455943442	0.773581490233801
223	9.141516	8.03948181152344	-0.791553955078125	3.70449645996094	0.761780280603305	0.214826434358346	-0.611179521241368	-0.100064318984941	0.9711141657253	0.216620426538528	0.640060884721156	-0.103859906742368	0.761272082518095
224	9.141516	8.0233154296875	-0.96998291015625	3.28716430664063	0.750438912074354	0.21144581529885	-0.626204524446498	-0.0934527501711488	0.971872575041938	0.216171879222996	0.654299642923721	-0.103703254886032	0.749091190841231
225	9.141516	9.69863159179688	0.664019165039063	2.1986279296875	0.739097343302856	0.209877209948418	-0.640067710376744	-0.0881513252662158	0.972185882627025	0.216988371749552	0.66780570600772	-0.103952712157884	0.737040957246306
226	9.141516	9.09448791503906	-0.146694946289063	2.41777221679687	0.729612188082767	0.206309064577846	-0.651998945454739	-0.0818756767325273	0.972903506736323	0.216229369281223	0.678942139331967	-0.104380728361029	0.726733950621652
227	9.141516	9.09688293457031	-0.06945556640625	2.02498901367187	0.720014513613979	0.202405808718591	-0.66378534842387	-0.0750714935985106	0.973624266537079	0.215453146783757	0.689886491412982	-0.105298035153121	0.716218509086981
228	9.141516	9.52678894042969	-0.45265869140625	0.104782104492188	0.70792657348332	0.201399301427682	-0.676962545448866	-0.0687414385328664	0.973578928345217	0.217758317661145	0.702932842584979	-0.107621520462321	0.703066872458645
229	9.141516	10.5243145751953	-0.429307250976563	-1.92320068359375	0.698423280817238	0.198279728117823	-0.687670030050756	-0.0639577188021806	0.974303356172975	0.215968470744454	0.712821387879255	-0.10685560147975	0.693157665624708
230	9.141516	10.4865930175781	-0.405357055664062	-2.9746142578125	0.692027143769346	0.198318212708048	-0.694095323997163	-0.0600390698235854	0.974003071429689	0.218433804481473	0.719370379138007	-0.109489284196296	0.685943404564125
231	9.141516	10.5195245361328	-0.67300048828125	-2.85546203613281	0.693215747280615	0.200583691507623	-0.692255812849089	-0.0588618925581963	0.973040064110509	0.222998455690356	0.718322493958421	-0.113838553825104	0.686333430874792
232	9.141516	10.0991986083984	-0.199984130859375	-1.74477172851563	0.695194637237213	0.203279968822514	-0.689479274983765	-0.0595195678171769	0.972164916513061	0.226611553430113	0.716353151318173	-0.116501628214675	0.687942972360248
233	9.141516	9.9680712890625	0.27063720703125	-0.765208740234375	0.701773541728417	0.20442721424054	-0.682439308809074	-0.0601492615152702	0.971526010190417	0.229170848631887	0.709856297055342	-0.119777817651449	0.694087395022799
234	9.141516	9.60941711425781	0.204774169921875	-0.303568725585938	0.708525756360272	0.205665692274801	-0.675050276346312	-0.0605870926911911	0.97078526727936	0.232174867357712	0.703079267773794	-0.12360253983826	0.700287052123768
235	9.141516	9.15077087402344	-1.24840393066406	2.7159521484375	0.715859622509408	0.208225048023763	-0.666473803113213	-0.0628225706545872	0.96983546928398	0.235525979745489	0.69541234205113	-0.126733941366253	0.707347285729392
236	9.141516	8.79151794433594	-0.8861572265625	3.08239013671875	0.721780516650314	0.209602519904168	-0.659620852788805	-0.065166886262003	0.969388273894878	0.23672695530933	0.689047286272083	-0.12787946701849	0.713344712741425
237	9.141516	8.98491577148438	-0.01676513671875	3.29255310058594	0.728562563009247	0.212369852179774	-0.651226256892748	-0.0700615488359827	0.968841711530341	0.237564975056644	0.681386799957338	-0.127455026907931	0.720740761272594
238	9.141516	8.26700866699219	1.38312377929688	4.73136108398438	0.734752998702193	0.21475459845098	-0.643442688467507	-0.0746944898001147	0.968408293231399	0.237920387512608	0.674209733014613	-0.126751094846582	0.727581882583367
239	9.141516	7.88081176757813	0.85023193359375	4.40084838867188	0.740223064447227	0.217681625613145	-0.636148194001032	-0.0782493173171727	0.967601772547206	0.240049690903575	0.667792527061925	-0.127912155927121	0.733274587836183
240	9.141516	7.58143432617188	0.353265380859375	4.82955688476563	0.748378556063524	0.218644024271524	-0.626198313216052	-0.0808818829198501	0.967142638436953	0.241025388564252	0.658321849735838	-0.129730133614217	0.741473151633168
241	9.141516	6.92759399414063	0.393980712890625	5.43070678710938	0.75463059117711	0.220995198267376	-0.617813720471187	-0.0833060489469681	0.966223633868043	0.243868799897977	0.650840051831886	-0.132563236598981	0.747552148839043
242	9.141516	7.06949890136719	-0.634081420898438	4.82416809082031	0.764303538030951	0.222352681943425	-0.605309331322372	-0.0867505255257743	0.965593194966758	0.245161432845567	0.638994873277066	-0.134866847914734	0.75729550722236
243	9.141516	6.31387023925781	1.0202783203125	6.79586791992188	0.769384957643404	0.225093426755588	-0.597812459040028	-0.0921751196140254	0.965184719585049	0.244790123174263	0.632100098304215	-0.133234403631185	0.763346618131531
244	9.141516	5.63069091796875	0.494571533203125	8.51010314941406	0.77397293916432	0.227489362210027	-0.590943719420571	-0.0961267769447027	0.964632781083035	0.245444984495982	0.625879806508859	-0.133162260949882	0.768467487967545
245	9.141516	5.75583068847656	0.365839233398437	7.43054809570313	0.778094478689053	0.22847330261302	-0.585123006065144	-0.0984334717090387	0.96434723695485	0.245652718741014	0.620386842124265	-0.133545335263517	0.772842680982642
246	9.141516	5.38101013183594	0.274828491210937	7.46048583984375	0.783228152099504	0.22928055038056	-0.577913567046132	-0.101260911467914	0.964149477740463	0.245279457724207	0.613432872910707	-0.133589721872534	0.778366171311765
247	9.141516	4.76249633789063	0.26105712890625	7.5347314453125	0.788889554931954	0.228847162321134	-0.570335205310727	-0.10390598938021	0.964385495526663	0.243236842169752	0.605687060692388	-0.132625760376173	0.784572235166692
248	9.141516	3.80927856445313	-0.217348022460938	8.27060119628906	0.795555652047856	0.22931253129106	-0.560809207741455	-0.107017777697239	0.964240770205557	0.242460166481298	0.596354256924067	-0.132874000716021	0.791647712168906
249	9.141516	3.04047729492188	-0.296383666992187	9.18070861816406	0.801695580763299	0.229816114427804	-0.551786869483049	-0.110465125148868	0.964196385144326	0.241086679433892	0.587436508833458	-0.132324919890102	0.798378646799648
250	9.141516	2.97102172851563	0.0580792236328125	8.07301208496094	0.806392090184999	0.230960121235208	-0.544416402477082	-0.113704248600672	0.963959939755476	0.240525629396902	0.580347431059384	-0.132055507062892	0.803590817715793
251	9.141516	2.76924133300781	0.0868194580078125	8.50890563964844	0.8128270669097	0.230641276244965	-0.534898832482431	-0.117042989234892	0.96421232186668	0.237898165254437	0.57062518168228	-0.130763909594965	0.810732817873746
252	9.141516	1.86452270507813	0.159867553710937	8.93102783203125	0.817335856004608	0.231890171012849	-0.527436296700224	-0.120733953874173	0.964039545409318	0.236751066035413	0.563369692893685	-0.129825665700688	0.815941104280357
253	9.141516	1.02566711425781	-0.551453247070313	10.4099523925781	0.821399281429676	0.23222946413103	-0.520934445449931	-0.124030763331645	0.964225496763702	0.234276676470713	0.556704221480475	-0.127822796793874	0.820817727882147
254	9.141516	1.03165466308594	-0.06466552734375	8.76457397460937	0.825392005602364	0.231911181590915	-0.514728317601444	-0.126620993202264	0.964550770529894	0.231536034237999	0.550177390637038	-0.125932580864894	0.825497319140727
255	9.141516	0.521515502929688	-0.09340576171875	9.66270629882812	0.827551173392243	0.232495459730893	-0.510984262596846	-0.129299147297689	0.964677167413848	0.229520572451546	0.5462973420448	-0.123870189613625	0.828381186531824
256	9.141516	0.53887939453125	0.0293389892578125	9.79802490234375	0.829752586768362	0.23226190529594	-0.507508671945132	-0.130911135420823	0.964923111106803	0.22756463757535	0.54256144294821	-0.1223838102049	0.83105311721074
257	9.141516	0.28740234375	0.247285766601563	9.53098022460938	0.830735934055901	0.232778886986209	-0.505659764705212	-0.132423235554201	0.964932352132104	0.226648720477663	0.540686503025206	-0.121324134376746	0.832429312232641
258	9.141516	0.2155517578125	-0.0281414794921875	9.40823547363281	0.83184652349444	0.232734099091738	-0.503851367439021	-0.133116790438334	0.964996327218483	0.22596904336266	0.538805420772296	-0.120900486247145	0.833709656278247
259	9.141516	-0.140707397460937	-0.170645141601563	10.0680633544922	0.831971930171325	0.232418875027111	-0.50378981126868	-0.133532380136037	0.965217633512181	0.224775495578034	0.538508877236212	-0.119734650324281	0.834069423159438
260	9.141516	0.240699462890625	-0.671802978515625	9.45314208984375	0.83119299099954	0.231467625671823	-0.505510583449138	-0.133145538551497	0.965630798322131	0.223225058843305	0.539805962617189	-0.118236625449198	0.833444433135957
261	9.141516	0.459244995117188	-0.492775268554688	8.91126892089844	0.830322186455362	0.230572307382364	-0.507347492108082	-0.13333151214567	0.966146267574098	0.220871223842285	0.541098673578984	-0.115748869199714	0.832955235730019
262	9.141516	0.205372924804688	-0.68258056640625	8.98910705566406	0.829841938795767	0.227934606337831	-0.509321285486186	-0.134743196981258	0.967608181326298	0.213491635193707	0.541485574584359	-0.108536734168812	0.833674486747085
263	9.141516	0.243693237304688	-0.039517822265625	9.16753601074219	0.829645337110969	0.224721208817184	-0.511066524943447	-0.135546213899231	0.969101074987425	0.206083309260606	0.541586409086871	-0.101702924077738	0.834470297090572
264	9.141516	0.941841430664063	-0.022752685546875	8.75978393554688	0.82905131911291	0.21961989024109	-0.514238285318817	-0.135541513293526	0.971143793291965	0.196235141920592	0.542496459390516	-0.0929883678799956	0.834895655149653
265	9.141516	0.73048095703125	0.388591918945313	9.10526550292969	0.82887951303813	0.215108159433007	-0.516417692000396	-0.135353777068177	0.972805236531302	0.18796097150913	0.542805773641963	-0.0858979133775776	0.83545403259445
266	9.141516	0.507145385742187	0.913699951171875	9.18070861816406	0.827442038149534	0.211272986776742	-0.520291647599094	-0.136003750036082	0.974338380732815	0.179353560898799	0.544832683930643	-0.0776430607935499	0.834942454083837
267	9.141516	1.45677062988281	1.29211303710937	8.91845397949219	0.826946544806199	0.204408596199743	-0.52380963892691	-0.137854510907939	0.976852829342072	0.163568589982068	0.545119753683007	-0.0630529587413598	0.83598371906308
268	9.141516	0.152083740234375	2.52075805664062	9.07652526855469	0.827645556037515	0.19765064527105	-0.525297112113984	-0.13905165078233	0.978971102096372	0.149265601110651	0.54375313515056	-0.050495580837858	0.837724730642343
269	9.141516	0.2921923828125	3.30871948242188	9.01844604492188	0.827569529161772	0.191007276837254	-0.52786825496347	-0.139091661850012	0.980780831413338	0.136830078330616	0.54385860663114	-0.0398143306785012	0.838231850424367
270	9.141516	0.207767944335938	3.43625427246094	8.2532373046875	0.827916595624228	0.185401338121539	-0.529320748235633	-0.138313694313552	0.982125860031066	0.127664078830251	0.543528686138391	-0.0324829013633604	0.838761842517704
271	9.141516	0.625698852539063	4.60023376464844	8.63344665527344	0.82804482935648	0.179927441022116	-0.531006475048309	-0.138073054224298	0.983379454851547	0.117901142797891	0.543394508872855	-0.0243097458462156	0.839125404205904
272	9.141516	0.738863525390625	3.86675903320313	8.20234313964844	0.828680074441699	0.174320181584071	-0.531885145981533	-0.13825583207675	0.984569151752723	0.107279589455258	0.542378704523016	-0.0153642347489175	0.839993619720123
273	9.141516	0.74006103515625	3.79011840820313	7.72214172363281	0.828950677681029	0.169869846593675	-0.532902438716886	-0.139758092402217	0.985449999144839	0.0967262880169145	0.541579587484847	-0.00570389372963047	0.840630130328473
274	9.141516	0.905916137695313	4.74273742675781	7.83590515136719	0.829103169983439	0.16628727254441	-0.5337944140895	-0.142303703603122	0.986066925825858	0.0861491365782452	0.540682521877901	0.00453439985923488	0.841214508763175
275	9.141516	0.93884765625	4.54874084472656	7.55029907226563	0.829201965233205	0.162720755561918	-0.534739241652181	-0.145070894582011	0.986555439130691	0.0752515851449283	0.539794902160595	0.0151763378654997	0.841659754515105
276	9.141516	0.946631469726563	4.43916870117187	7.21020629882813	0.830086669584971	0.159471509739193	-0.534345355139196	-0.148542377318057	0.986848275929829	0.0637623904431515	0.537486077138776	0.0264446190335053	0.842857875923422
277	9.141516	0.820892944335938	5.54447021484375	7.61256958007813	0.830035940750778	0.156860732023344	-0.535196270363567	-0.153378626467145	0.986832092549601	0.0513557986718938	0.536204563580937	0.0394605101750699	0.843165187926838
278	9.141516	0.53408935546875	5.98934509277344	7.24074279785156	0.830176946113701	0.153790137456063	-0.535868297030693	-0.158337774185284	0.98665874612394	0.0378638080914228	0.534542222286865	0.0534145328387261	0.843452132769988
279	9.141516	0.137114868164063	6.14681762695313	7.22577392578125	0.830004072363586	0.151446433891175	-0.536802773392156	-0.163595188236477	0.986203504164523	0.0252836460876852	0.533225894200325	0.0668328215419741	0.843328832495962
280	9.141516	0.41433837890625	6.54738464355469	6.39889343261719	0.829246634446656	0.147385311523318	-0.539098867746974	-0.168520954144786	0.985644807982258	0.010246975736732	0.532870253695049	0.0823521854281524	0.842180153103944
281	9.141516	0.693358154296875	7.3622900390625	4.64274536132813	0.829872352305781	0.142907546802485	-0.539341554068817	-0.172847539048149	0.984935995471203	-0.00498127194100194	0.53050504910271	0.097357680190353	0.84207236920854
282	9.141516	0.24189697265625	8.65260681152344	5.61991333007813	0.830976064417636	0.138121458608301	-0.538888896746716	-0.177453156819647	0.98389533375382	-0.0214557533589923	0.527246770971354	0.113456753388132	0.842103561096203
283	9.141516	-0.137114868164063	8.68194580078125	5.19419860839844	0.831010894772021	0.132902044456801	-0.540146220341686	-0.182255515573184	0.982490938517082	-0.0386585407766016	0.525550967855031	0.130570296434625	0.840682804555687
284	9.141516	0.405955810546875	8.64182922363281	4.26552978515625	0.833287803282662	0.127267395153094	-0.537991121703046	-0.18694053981279	0.980683534939788	-0.0575590034009013	0.520273650567524	0.148535566208732	0.840983064095938
285	9.141516	-0.232915649414063	8.74481506347656	4.77507019042969	0.833319656965617	0.124945230476071	-0.53848587604132	-0.193624588021426	0.978384044775854	-0.0726235488087227	0.51777202341208	0.164782736684768	0.839499125349419
286	9.141516	0.1484912109375	8.93402160644531	3.00455200195313	0.83453535286021	0.121494029732794	-0.537391798937955	-0.19814273416257	0.97630637428808	-0.0869788504352894	0.514091627752354	0.179067205997498	0.83883534380186
287	9.141516	-0.436492309570313	8.88252868652344	3.84879638671875	0.834780766242242	0.120966381651214	-0.537129599651917	-0.204292024857858	0.973976827199152	-0.0981524765787914	0.511278633321882	0.191667093130998	0.837769589158751
288	9.141516	-0.489781494140625	9.42799438476563	2.1842578125	0.835642932366201	0.118058161710383	-0.536435606610881	-0.208013372882442	0.971905028602539	-0.110141055375231	0.508361413060126	0.203624374353034	0.836723244496559
289	9.141516	-0.664617919921875	9.15256713867188	3.52427124023438	0.836743985005955	0.117291632150005	-0.534885199443714	-0.213723864280977	0.969272341002326	-0.121791784635411	0.504164272229955	0.216226274988633	0.836100822037259
290	9.141516	-0.71132080078125	10.5422772216797	1.99684753417969	0.836230926264914	0.112778961626252	-0.536655144177925	-0.217257502571308	0.966679595913839	-0.135387356944202	0.50350473238551	0.22980745126815	0.832869449437926
291	9.141516	0.120349731445313	9.66809509277344	0.582588500976563	0.836836305041817	0.110322151210854	-0.536221989027091	-0.221085660767971	0.964163417307147	-0.146662999183145	0.500825447802675	0.241283915085144	0.831237597293599
292	9.141516	-0.0640667724609375	10.0602795410156	1.15619567871094	0.840883709426548	0.106840412765624	-0.530565465726069	-0.223058242767053	0.961604274184821	-0.159881957090719	0.4931121652877	0.25278913360656	0.832429003804962
293	9.141516	-0.611927490234375	9.74892700195313	0.871188354492188	0.842442555668383	0.103411624387403	-0.528768925278786	-0.225094116420669	0.959208661606592	-0.171030354766894	0.489513206309822	0.263106023193027	0.831355544522215
294	9.141516	-1.64238464355469	8.85738098144531	1.79925842285156	0.845300533990511	0.103629899649893	-0.524144876092393	-0.22931921527196	0.956425045660889	-0.180731373977015	0.482576112900762	0.272968818605936	0.832230929085474
295	9.141516	-1.29750183105469	9.62737976074219	0.244890747070313	0.842932812233362	0.105391258833181	-0.527595447878309	-0.236212279590846	0.953554977685176	-0.186913518778927	0.48339221449135	0.282180061473843	0.828677488457221
296	9.141516	-0.930465087890625	10.049501953125	-0.324525146484375	0.842608648388507	0.109402877818914	-0.52729657308372	-0.24227745079537	0.951471960592741	-0.189743893292786	0.480949376231004	0.287631915007265	0.828224353042255
297	9.141516	-1.21607116699219	10.8536297607422	1.3939013671875	0.840332460178648	0.11601106175751	-0.529511841151826	-0.248741692058795	0.950441064912231	-0.186519041280594	0.481631526171023	0.288449676162757	0.82754326613161
298	9.141516	-1.58909545898438	11.3996942138672	1.14601684570313	0.838952137284033	0.1252191546297	-0.529603129390657	-0.254392846232819	0.950533240728173	-0.178243760217187	0.481085845907068	0.284265231051249	0.829306751017536
299	9.141516	-1.14182556152344	9.48966613769531	2.20281921386719	0.837193842801527	0.130864209982602	-0.531018858535968	-0.258665881925667	0.950233580286018	-0.173632095029786	0.48186972420233	0.282720182234034	0.82937980892636
300	9.141516	-1.61603942871094	10.0195642089844	2.10342590332031	0.833629394361298	0.140851664700843	-0.534062581920711	-0.263712926176095	0.951105011894436	-0.160794119659044	0.485301478901988	0.274881910827698	0.830013499694587
301	9.141516	-0.185614013671875	9.22621398925781	3.01053955078125	0.831163900547356	0.146830264985983	-0.536290447156251	-0.267029797698879	0.95140581203302	-0.153369058061546	0.487710628926417	0.270680354133684	0.829982221688069
302	9.141516	-0.279019775390625	8.440048828125	3.00095947265625	0.829862436191173	0.151356364103366	-0.537047100396474	-0.26934654885406	0.951601140522871	-0.148012519659587	0.488651996434332	0.267481813215369	0.830465355074948
303	9.141516	-0.468226318359375	8.05145690917969	3.48774719238281	0.828806397601795	0.158445704743617	-0.536632941536982	-0.274355678863108	0.950942972134273	-0.142956025490351	0.48765655616417	0.265711163477813	0.83161809794723
304	9.141516	-0.731079711914063	8.26341613769531	3.80927856445313	0.828238940460937	0.163834184203576	-0.535890490296752	-0.27834322189308	0.950272305896644	-0.139669593942473	0.486359237940768	0.264841282152584	0.832654662472655
305	9.141516	-0.477207641601563	9.05556884765625	4.83674194335938	0.828043724616274	0.171261305174105	-0.533866233689368	-0.28283829502886	0.949759335654529	-0.134013817206424	0.484093058191063	0.261967115659832	0.834881513344315
306	9.141516	-0.422122192382813	7.93290344238281	4.80740295410156	0.828207194267106	0.176349135577425	-0.531952841655445	-0.285852700745783	0.949370686986531	-0.130320881546528	0.482038459918449	0.259992848116669	0.836685509667541
307	9.141516	-0.45265869140625	7.99517395019531	5.48758850097656	0.827661297274168	0.185417346135771	-0.5297142482003	-0.290141325492422	0.949296885333313	-0.121051372309325	0.480411061733534	0.253881529947412	0.839493526190417
308	9.141516	-0.4167333984375	7.27547058105469	5.83845886230469	0.828137011402428	0.191207278555505	-0.526904988563264	-0.292980428632496	0.949045701511399	-0.116080682635212	0.477861443081334	0.250503558996944	0.841959861362815
309	9.141516	-0.690364379882813	7.4293505859375	6.11987365722656	0.828720740036786	0.199714753245625	-0.52281540946009	-0.296485399450943	0.948972914878803	-0.107456106103113	0.474677093343777	0.244058239284126	0.845646044685503
310	9.141516	-0.707728271484375	7.52994140625	7.50359619140625	0.8285599456921	0.203840117838835	-0.521476387532701	-0.29801786998475	0.94903645785149	-0.102543409532015	0.473997642994623	0.240372644092766	0.847081593713023
311	9.141516	-0.18441650390625	5.3408935546875	6.46475646972656	0.8279653644622	0.211469396692643	-0.519378522383653	-0.301429714329583	0.948823594805012	-0.0942014504160197	0.472877872785525	0.234551657857593	0.849336233317578
312	9.141516	-0.169447631835938	6.88148986816406	7.40480163574219	0.827761159896247	0.216703201844634	-0.517543413133143	-0.303917253895678	0.948539808562968	-0.088918695198693	0.471641564062933	0.230893815165352	0.851024254158869
313	9.141516	-0.2347119140625	4.15176635742188	6.76772644042969	0.827811495024971	0.226864830186477	-0.513089151638372	-0.310063493368056	0.947221813249319	-0.0814338172080291	0.467534767461117	0.226502064734814	0.854463607116152
314	9.141516	-0.437091064453125	5.71391784667969	8.94120666503906	0.82790293953179	0.230738621089876	-0.51121073096343	-0.3118665221334	0.946947210610851	-0.0776547016525486	0.466171636939699	0.223720068509447	0.855940030527309
315	9.141516	-1.08135131835938	4.49964294433594	7.83770141601563	0.828983643947066	0.240086465152471	-0.505118409206035	-0.317066378291795	0.945754369247967	-0.0708349123335698	0.460711438782639	0.218877048360424	0.860138249280812
316	9.141516	-1.18852844238281	3.62067077636719	10.6416705322266	0.827879157346553	0.238207236640905	-0.50781237996239	-0.314665818242399	0.946697614719854	-0.0689133449600428	0.464329111364993	0.216843120009938	0.858706898565135
317	9.141516	-0.0233514404296875	2.70397705078125	7.00423461914063	0.827354854358923	0.244046141656466	-0.505890725069473	-0.31760791820751	0.946126312636479	-0.0630096090195077	0.463259274338482	0.21280620592335	0.860293184594585
318	9.141516	-0.229323120117188	3.29375061035156	8.84780090332031	0.826999040081258	0.247412768741914	-0.504836121497005	-0.319545635231191	0.945668985455849	-0.0600063075984581	0.462561536132625	0.210943337914156	0.861127013558546
319	9.141516	-0.128133544921875	2.44651245117188	8.68613708496094	0.826535276088966	0.254790209723514	-0.501917708802534	-0.323168661612296	0.944882580102371	-0.0525254792534421	0.460870321817596	0.205618235689674	0.863318995284832
320	9.141516	-0.333506469726563	2.72193969726563	9.06874145507813	0.825501171336856	0.26043791091553	-0.500719393152926	-0.326028948872485	0.944221094117903	-0.0463858806092296	0.460709171407063	0.201540616206128	0.864365917537632
321	9.141516	-0.0143701171875	1.45976440429688	8.11731994628906	0.824918128056589	0.267108449050341	-0.498159772010482	-0.329292264470813	0.943403943308759	-0.0394411499473436	0.459430828921284	0.196575878976557	0.866187760962539
322	9.141516	-0.5316943359375	1.61304565429688	9.25495422363281	0.825283269233355	0.276147558137674	-0.492595220904655	-0.333639327310437	0.942198227056187	-0.0307782423802637	0.455623007315637	0.189749906631806	0.869714118626274
323	9.141516	-0.718505859375	1.59628051757813	10.0890197753906	0.825205687765153	0.278244613224847	-0.491544004226882	-0.334106576361944	0.942131288023221	-0.0275940529717259	0.45542108922594	0.186998853844246	0.870415452613978
324	9.141516	-0.61072998046875	-0.395776977539063	8.69691467285156	0.825204959058603	0.280897206297822	-0.49003421823294	-0.334126718594001	0.94225861574225	-0.0225396757098426	0.455407632200752	0.182333377508283	0.871411744228712
325	9.141516	-0.34248779296875	0.168848876953125	9.09209289550781	0.825747620381402	0.280789237005649	-0.489181225944167	-0.333959841156257	0.942310392613907	-0.0228461915144166	0.454545588394982	0.182232072790744	0.871882893350391
326	9.141516	-0.267044677734375	0.453856201171875	9.21543640136719	0.824878072677998	0.278338052389003	-0.492040744052085	-0.33260187352587	0.942754475813955	-0.024289752156733	0.457112851429615	0.183689757267659	0.870233252716095
327	9.141516	-0.171243896484375	-0.1963916015625	9.02143981933594	0.824656885390094	0.280654308504017	-0.491094879322562	-0.334775456120966	0.941996735661958	-0.0238231815930457	0.455923694665794	0.184052462956485	0.870780268220372
328	9.141516	-0.117954711914063	1.05620361328125	9.20465881347656	0.824408739834101	0.279198923289266	-0.492339507778184	-0.335345487316795	0.941693616291899	-0.027505220801658	0.455953543490355	0.18777937658114	0.869968546505785
329	9.141516	-0.209564208984375	0.185614013671875	8.53285583496094	0.824983545590168	0.279555476632962	-0.49117296850498	-0.336620325858768	0.941171400380528	-0.0297178620444492	0.453970159508544	0.189855551907954	0.870554974533782
330	9.141516	-0.0952020263671875	0.724493408203125	9.09448791503906	0.825329003773845	0.278504819619003	-0.491189475639145	-0.336861705546096	0.940993995000401	-0.0324729535114962	0.453162472923616	0.192263794881332	0.870447244990517
331	9.141516	0.034727783203125	0.080233154296875	8.50591186523438	0.825829022171369	0.276843325830541	-0.491288305460822	-0.336581285659391	0.940984033163356	-0.0355258705100385	0.45245935097349	0.194696744386519	0.870272206520431
332	9.141516	-0.008382568359375	0.50534912109375	9.27710815429688	0.826691421876922	0.276516046365505	-0.490020580279546	-0.337343695564083	0.940600433634472	-0.0383413003145414	0.450311585525268	0.197001777527597	0.87086725486304
333	9.141516	-0.351469116210938	0.506546630859375	8.73343872070313	0.827995150287646	0.272957203738523	-0.489814654769929	-0.337628037033689	0.940113387839268	-0.0468415052507011	0.447695588216945	0.204159699580059	0.870567330743846
334	9.141516	-0.849633178710938	1.35857482910156	8.89689880371094	0.828854035174048	0.269939189885162	-0.490034511172265	-0.338196207686301	0.939495989236268	-0.0545033147209608	0.445672877211865	0.2109031056507	0.869997452033388
335	9.141516	-0.28500732421875	1.69028503417969	8.64721801757813	0.82969986928459	0.266489127718696	-0.490491255494797	-0.338039350797182	0.939114784934803	-0.0615858590057645	0.444215628070145	0.216903124746018	0.869267226032168
336	9.141516	-0.0383203125	1.90044799804688	8.77235778808594	0.830267678729051	0.263757805239761	-0.491006519134907	-0.339026815792064	0.93822189815782	-0.0692855539851642	0.442398462736668	0.223989932792171	0.868396286366997
337	9.141516	-0.30416748046875	2.50219665527344	8.82504821777344	0.831231885782988	0.259978684070805	-0.491390512613412	-0.339275064621871	0.937452902556912	-0.077938989045584	0.440392986528491	0.23150192076187	0.867445028863548
338	9.141516	-0.277822265625	2.5051904296875	9.04539001464844	0.832504228277262	0.255770652057318	-0.49144489360116	-0.339569491717506	0.936469758646585	-0.0878461805380466	0.437754806021813	0.240012009463241	0.866466944042427
339	9.141516	-0.492176513671875	2.50998046875	8.34364929199219	0.833843789850851	0.251980804053309	-0.491131559274923	-0.339715859700175	0.935535273039159	-0.0967826821684382	0.435083519333175	0.247546818376229	0.865692153087035
340	9.141516	-0.447269897460938	2.89497985839844	8.91186767578125	0.834545509817625	0.249366298341776	-0.491274099963107	-0.340494729800121	0.93446772977549	-0.104083624968505	0.433124844613631	0.254138763787743	0.864763758328745
341	9.141516	-0.353864135742188	3.45481567382813	8.60829895019531	0.83532668849669	0.245715781156609	-0.491785602041939	-0.34130852207935	0.933069448827299	-0.113533679677583	0.430973103848911	0.262688329690756	0.863282702944474
342	9.141516	-0.441282348632813	3.44763061523438	7.63113098144531	0.836731597581403	0.240308221241556	-0.492069296352245	-0.340898982368522	0.931803709777428	-0.124618338398205	0.42856518457404	0.272018023757145	0.861590434790381
343	9.141516	-0.567020874023437	4.10685974121094	8.04846313476563	0.83734383675526	0.238576564939956	-0.491870431830815	-0.34405855494255	0.929189566265476	-0.13502022335273	0.424828212126767	0.282290581856405	0.860135464666088
344	9.141516	-0.470621337890625	5.68637512207031	7.70537658691406	0.837829343867341	0.23736381913729	-0.491630356995356	-0.347428932668009	0.926462252150644	-0.144778562242911	0.42111177530436	0.292106338008124	0.858684319174104
345	9.141516	-0.511336669921875	5.67978881835938	7.61975463867188	0.839233581776555	0.23326964614853	-0.491194734707361	-0.348563313689349	0.924096139371101	-0.156684209636224	0.417361487883581	0.302707114857195	0.856841753794969
346	9.141516	-0.822090454101563	5.62470336914062	7.26469299316406	0.840526650286965	0.229984851938669	-0.490532280320188	-0.349905191978552	0.921702476479578	-0.16742431567089	0.41361976111379	0.312364390944553	0.855188388886338
347	9.141516	-0.884959716796875	5.47441589355469	7.46347961425781	0.841802957153286	0.226332989368157	-0.490041997436604	-0.351186356043213	0.919077869792511	-0.178784822025669	0.409921851890177	0.322597655263231	0.853167526434049
348	9.141516	-0.783770141601563	5.77079956054687	6.81023803710938	0.842062135031227	0.220737892353515	-0.492144433704153	-0.352222337884501	0.916056119503999	-0.191782717194359	0.408498207391206	0.334837227318892	0.84912498830241
349	9.141516	-0.564027099609375	7.23116271972656	6.30069763183594	0.843190274861092	0.213054933639619	-0.493596754073095	-0.353058329533307	0.911836834546105	-0.20953138932411	0.405438005528377	0.350943275212331	0.844072770119031
350	9.141516	-0.749042358398438	7.61855712890625	6.99405578613281	0.844381930971039	0.206134892755299	-0.494497280718895	-0.354161726951776	0.907335364545566	-0.226521538506831	0.401980877420999	0.366402705003289	0.839142676756532
351	9.141516	-0.998124389648438	7.2664892578125	6.04083801269531	0.844627022038097	0.200376348322439	-0.496441852260686	-0.356088602778687	0.902712120987172	-0.241478225921021	0.399757552291609	0.380736320379086	0.833806784411123
352	9.141516	-0.444276123046875	7.62634094238281	5.4558544921875	0.844960234002466	0.196681412024027	-0.49735161115526	-0.359306252314734	0.897567671317773	-0.255482469951913	0.396158074513241	0.394574071080988	0.829077850644038
353	9.141516	-0.775387573242188	8.49932556152344	5.11456420898438	0.845199325974063	0.195197817238925	-0.497529809677921	-0.362990043646171	0.892923132147691	-0.266320311447152	0.39227073251358	0.405692115058595	0.825552893637073
354	9.141516	-0.878373413085938	8.55321350097656	5.09480529785156	0.845221509826118	0.193442987568317	-0.498177086875643	-0.366597932472348	0.888153421290742	-0.277109105149126	0.388852870934828	0.416849266294417	0.821602174994412
355	9.141516	-0.659827880859375	8.44603637695313	3.78712463378906	0.845633334953318	0.189849843590781	-0.498860000104524	-0.368658658810222	0.883612782951993	-0.288650728542443	0.385998777329642	0.428001736786652	0.817202213168584
356	9.141516	-0.252075805664063	8.63105163574219	2.99676818847656	0.846637545529344	0.186779600206597	-0.498315409601904	-0.371305331515268	0.878126163921403	-0.301706465003683	0.381231186143509	0.440463189362454	0.812806841462514
357	9.141516	-0.959804077148438	9.33219360351563	3.41410034179688	0.847466017553724	0.188451838714081	-0.496273365774263	-0.375782134803473	0.873287658092067	-0.310091040481046	0.374952178623058	0.44928228399232	0.810898448041719
358	9.141516	-1.08674011230469	9.17412231445313	3.13029052734375	0.848770565138506	0.184076165687939	-0.495685881360451	-0.37737783644179	0.867519412557675	-0.324030920435228	0.370370755212901	0.462088772922708	0.805791207213017
359	9.141516	-1.76393188476563	9.41542053222656	3.35242858886719	0.849843827908512	0.182804998052836	-0.494315487166557	-0.380053918593794	0.862367994423377	-0.334485367625707	0.365136258302719	0.472126863121667	0.80235387329506
360	9.141516	-1.39509887695313	9.5561279296875	2.83031433105469	0.849101102056379	0.181722135545773	-0.495988290123191	-0.382716895450562	0.858816950642501	-0.340530796295722	0.364081167356026	0.478968172994614	0.798770550805971
361	9.141516	-0.771795043945313	9.28070068359375	2.0261865234375	0.848843177575784	0.18040774286725	-0.49690875037233	-0.384570116353127	0.855686379468683	-0.346275389827115	0.362727288043219	0.485029758164716	0.795722972021978
362	9.141516	-0.761017456054688	8.7226611328125	2.58721984863281	0.848467482056392	0.180048434458849	-0.49768011125803	-0.387590445204541	0.851709269937445	-0.352654173786122	0.360383932326393	0.492111654760933	0.792432672578197
363	9.141516	-0.573607177734375	9.81898132324219	1.73339538574219	0.84881398366213	0.180484033420253	-0.496930915540563	-0.390306600803166	0.847925997782416	-0.358723096070175	0.356616851128915	0.498444596685581	0.790175553611883
364	9.141516	-0.602347412109375	9.40584045410156	2.24892333984375	0.848885735674547	0.181318721081438	-0.496504309300207	-0.392939947593937	0.84474369470248	-0.363326695750915	0.353540952865659	0.503519226689305	0.788338241493489
365	9.141516	-0.565224609375	9.57349182128906	1.8537451171875	0.849442460640061	0.183157662433905	-0.494874506065434	-0.395834551769863	0.841338488700152	-0.368055097854788	0.348944857659361	0.508530056263633	0.787168767285387
366	9.141516	-0.623902587890625	9.50223999023438	1.56334899902344	0.849089991463646	0.185629058003952	-0.494558428520667	-0.399448221112043	0.838259209146203	-0.371163868031368	0.345669357980557	0.512702010046916	0.785906701744655
367	9.141516	-0.75443115234375	9.35075500488281	2.39142700195312	0.849433627688309	0.188336576216385	-0.492942031289045	-0.402393496253522	0.835503643820504	-0.374183291096125	0.341382463411855	0.516200537796844	0.785490304493381
368	9.141516	-0.702339477539063	9.50523376464844	2.49920288085938	0.848415151343477	0.19487734571913	-0.492152975299644	-0.406658279495101	0.835152078931082	-0.370337749595118	0.338852142812922	0.514338240054693	0.787804163563847
369	9.141516	-0.770597534179688	9.68905151367188	3.45721069335938	0.848542915157364	0.199440079085023	-0.490100577423453	-0.409607903944494	0.833939170308257	-0.369819990335535	0.334957140784371	0.51455720292319	0.789325407393822
370	9.141516	-0.894539794921875	8.57476867675781	4.03500915527344	0.847050263693278	0.206064898381569	-0.489941943940445	-0.414247506056172	0.833498224219405	-0.365622365220375	0.333023804709798	0.512657749261721	0.791376760853209
371	9.141516	-0.913699951171875	8.83881958007813	3.6068994140625	0.847515965477973	0.212066487992996	-0.486563965918414	-0.417461595881611	0.832461364453926	-0.364326629078204	0.327784234251615	0.511894404503336	0.794053911528845
372	9.141516	-0.830473022460938	8.62266906738281	4.85530334472656	0.846233789025152	0.219394223082182	-0.485545620091768	-0.42217918665174	0.832033385837041	-0.359840491343908	0.325043241231392	0.509496437407285	0.796718439349232
373	9.141516	-0.920286254882813	8.76936401367188	4.32480651855469	0.845280795031865	0.22697927485816	-0.483715604808407	-0.425899325098726	0.832887661479473	-0.353423129174797	0.322661033331805	0.504755933239144	0.800694264641088
374	9.141516	-0.712518310546875	7.34552490234375	4.64693664550781	0.844966932686735	0.23502802116566	-0.480408900763637	-0.429838464674863	0.832924447965283	-0.348533726155283	0.31822912649839	0.500997697847688	0.804817699730435
375	9.141516	-0.907113647460938	8.09696228027344	5.68637512207031	0.843764950879304	0.242614712433633	-0.47874712425078	-0.433582801796868	0.8338597527311	-0.341590202964321	0.316333149786146	0.495798360309888	0.808775200077501
376	9.141516	-1.05141357421875	7.5826318359375	5.86540283203125	0.842679430621808	0.251022893653285	-0.476318049278881	-0.437640547063372	0.834661886124038	-0.33438045310385	0.313627372486809	0.490231621495182	0.813210199464583
377	9.141516	-0.693956909179688	6.96052551269531	6.15220642089844	0.842286300683296	0.255505101990845	-0.474627148968426	-0.439650219457361	0.835085743698567	-0.330665216196845	0.311867715886629	0.487184711919472	0.815714155975976
378	9.141516	-1.29989685058594	7.20661376953125	6.43062744140625	0.841516883314532	0.264285576893663	-0.471171379587703	-0.44322171656553	0.836410929721581	-0.322445757619767	0.308875128589697	0.48017693664759	0.820991025803836
379	9.141516	-0.808319091796875	6.18034790039063	6.98507446289063	0.841314386683183	0.26939117945312	-0.468634714028695	-0.444648935485278	0.837884377618989	-0.316602422469964	0.307371805687687	0.474740099607035	0.824708682440893
380	9.141516	-0.902323608398438	5.50076110839844	6.19771179199219	0.84085752613571	0.277381587283072	-0.464777447578147	-0.44759421151583	0.839172656785569	-0.308947688000692	0.304332125413102	0.46781268381669	0.829779037034421
381	9.141516	-0.629291381835938	6.07017700195312	7.55628662109375	0.840937933752263	0.282829799725693	-0.461335773557178	-0.448629112496769	0.84110241103221	-0.302123573353959	0.302581081690241	0.461035832168096	0.83420060564605
382	9.141516	-0.846639404296875	3.79191467285156	7.73770935058594	0.840518798396709	0.291877968872769	-0.456437729409456	-0.451306473701169	0.843313191881599	-0.291796722383727	0.299750923830385	0.451253932598018	0.840547007595444
383	9.141516	-0.856219482421875	3.64701599121094	8.39454345703125	0.84007245895416	0.298012162555683	-0.453284694949649	-0.452505447431804	0.845817294204748	-0.282545438591217	0.299194057011924	0.442472435065785	0.845399941125916
384	9.141516	-0.214354248046875	3.02910095214844	8.17539916992188	0.839514608356341	0.304085720297322	-0.450274468593944	-0.454469628568929	0.847183534726659	-0.275204315366717	0.297779413433367	0.435674113529026	0.849420677718631
385	9.141516	-0.233514404296875	1.96750854492187	8.58734252929688	0.838789647173632	0.314282648462812	-0.444587836843897	-0.458422978525912	0.848218857968147	-0.265279365474669	0.293735085670346	0.426322865751314	0.855551584408457
386	9.141516	-0.638871459960938	2.63751525878906	9.01185974121094	0.837856973162623	0.317402544264255	-0.444129842970888	-0.459626747979392	0.84912295581465	-0.260256524318758	0.294514762048791	0.422191699116846	0.857330288822327
387	9.141516	-0.346679077148438	2.41477844238281	9.08071655273438	0.838011548972918	0.321526528229748	-0.440859768444044	-0.460817827789854	0.849695204658118	-0.256251807353704	0.292204677202557	0.41789801486191	0.860219550926055
388	9.141516	-0.5412744140625	1.484912109375	9.44056823730469	0.837516001984154	0.324423744757959	-0.439677359273481	-0.461270470143881	0.851125375763983	-0.250629503658012	0.292910395502996	0.41271640210663	0.862478215167454
389	9.141516	-0.383801879882813	0.344284057617188	8.16043029785156	0.837605155257574	0.327189247274912	-0.437452626410692	-0.461819370239695	0.851852213381023	-0.247124818319133	0.291788404768503	0.409017118254884	0.864618137571219
390	9.141516	-0.36643798828125	0.9723779296875	8.75918518066406	0.838499456330346	0.329389246433434	-0.434075323034758	-0.462111023800961	0.851975957064879	-0.246151112662549	0.288742209272116	0.406988566076982	0.866595778703808
391	9.141516	-0.6083349609375	0.926273803710938	9.61300964355469	0.838766132037543	0.331449635079399	-0.431986707147932	-0.462581223868192	0.852267178894039	-0.244252465913044	0.287210701526571	0.404699635761796	0.868175222949195
392	9.141516	-0.392184448242188	0.576002197265625	9.28968200683594	0.838703068926711	0.33152423206379	-0.432051901659317	-0.46238125718877	0.852640545403853	-0.243326269305129	0.287716414501242	0.403851190276733	0.868402833331753
393	9.141516	-0.1484912109375	0.283809814453125	8.92324401855469	0.838687407329728	0.332329735280601	-0.431463068911887	-0.462523672977423	0.85290606294341	-0.242122076089411	0.287533101958735	0.402626619639956	0.869031944427413
394	9.141516	-0.426912231445313	0.171842651367188	8.87175109863281	0.839119402628886	0.332122663700681	-0.430782038144705	-0.461958363426914	0.853241706317366	-0.242018720475413	0.287181299167736	0.402085969485374	0.869398513083234
395	9.141516	-0.337098999023438	0.13172607421875	8.91546020507812	0.839414424792187	0.334153023791718	-0.428631753538691	-0.462598698965229	0.853252334491738	-0.240754849172508	0.285282083500663	0.400377584756254	0.870811071621319
396	9.141516	-0.22752685546875	0.053887939453125	9.70222412109375	0.839513626079455	0.335757430197259	-0.427181249230649	-0.462517447318962	0.854185156103868	-0.237582259475246	0.28512187315686	0.397032325080899	0.872393747277214
397	9.141516	0.03113525390625	-0.608933715820313	9.25016418457031	0.83894290377701	0.340019509552483	-0.424925331471174	-0.463382275040486	0.855763537101891	-0.230099186754679	0.285397392035214	0.389942946712144	0.875495760657325
398	9.141516	-0.076640625	-0.721499633789063	8.84420837402344	0.837891889073801	0.346194834673234	-0.422002747230286	-0.465448372320966	0.857016199143265	-0.22109058575569	0.285122771675816	0.381670500368581	0.879222744371583
399	9.141516	0.137713623046875	-0.98914306640625	8.67715576171875	0.837422193093284	0.352494535665637	-0.417698064205117	-0.467384835480505	0.858022269159132	-0.212953518848303	0.283329289127855	0.373557743799912	0.883277490921978
400	9.141516	0.152682495117188	-1.83638122558594	8.91605895996094	0.837065570396827	0.359747526423544	-0.41219285302923	-0.470363509135319	0.858005984204511	-0.206358669173738	0.279426913754103	0.366616213909572	0.887419377503369
401	9.141516	0.144898681640625	-1.68609375	8.74421630859375	0.837043234867894	0.366418254466068	-0.406320422518894	-0.472670522358997	0.85831255075159	-0.199705138930305	0.27557430985991	0.359217521867099	0.891639821749172
402	9.141516	0.0820294189453125	-2.58721984863281	8.61787902832031	0.836870762248927	0.373564702812501	-0.4001209068588	-0.474885960255425	0.859016842264032	-0.191241704288096	0.272269447505928	0.350056391913275	0.896286712182813
403	9.141516	-0.383203125	-3.01832336425781	8.33526672363281	0.836460077122224	0.381437335893273	-0.393497265768551	-0.476969837193386	0.860297322823882	-0.179967471365737	0.269878331454006	0.338221931767744	0.9015384689978
404	9.141516	-0.310753784179688	-3.57037536621094	8.79690673828125	0.835846947430612	0.387291629824252	-0.389056646182792	-0.478405401435122	0.861481238236685	-0.170230279456647	0.26923623892156	0.328413260442179	0.905348870887411
405	9.141516	-0.133522338867188	-3.70808898925781	8.31490905761719	0.83626442017935	0.388137459109534	-0.387312706192414	-0.477470915676029	0.862760288077388	-0.166331626578103	0.269598487061019	0.324027773736478	0.906820080072002
406	9.141516	0.281414794921875	-4.20266052246094	8.06582702636719	0.836657260731555	0.388834841346431	-0.385761706523945	-0.476386672575039	0.864149945252417	-0.162174629067334	0.270296811409333	0.319456316693442	0.90823306230648
407	9.141516	0.448467407226563	-4.52838317871094	7.70477783203125	0.837213604868723	0.390621852604447	-0.382737440147404	-0.476260129559888	0.864772253383869	-0.159201880544747	0.268792985054144	0.31556856314477	0.910036709776275
408	9.141516	0.075443115234375	-4.49605041503906	8.14067138671875	0.837404444314518	0.393439082893326	-0.379419931862248	-0.476780599756287	0.865233900783592	-0.155082418832197	0.267271503041999	0.3107667694379	0.912134835797209
409	9.141516	0.140707397460937	-4.42599609375	8.02271667480469	0.836727144912507	0.397480385212302	-0.376692219640977	-0.477850956854056	0.865934133648244	-0.147704228837663	0.267481117090963	0.30359087528176	0.914486977734197
410	9.141516	0.470621337890625	-4.55113586425781	7.63352600097656	0.837041028462714	0.399013175385604	-0.374367202808659	-0.477668820156555	0.866598021765898	-0.144361930306012	0.266823565151819	0.299660398685129	0.915974252116043
411	9.141516	0.58198974609375	-4.7852490234375	7.25631042480469	0.837587923438795	0.398864447542062	-0.373300981778047	-0.476578654846513	0.867525204821091	-0.142382599866743	0.267056653641464	0.297165225904866	0.916718916712606
412	9.141516	0.568817138671875	-5.41154663085937	7.57544677734375	0.838205761638652	0.399845042382851	-0.37085717363646	-0.475806055012977	0.868492167507881	-0.139032201271684	0.266495214157318	0.292993680920456	0.918223830975829
413	9.141516	0.06466552734375	-5.43908935546875	7.43473937988281	0.838586739989147	0.403916088620907	-0.365546266384383	-0.476617854681557	0.868957276149501	-0.133224145054826	0.263832712363584	0.285945878760346	0.921209669025921
414	9.141516	0.352666625976563	-5.08342895507813	8.06882080078125	0.838464218949518	0.406845352156108	-0.362566701408649	-0.477036688057607	0.869603411934915	-0.127380941267461	0.263464896691012	0.279761979868829	0.923211504928025
415	9.141516	0.985550537109375	-5.13312561035156	6.61264892578125	0.840138724779149	0.404895368339823	-0.36086931682179	-0.474440556003276	0.871044324296861	-0.127231851081114	0.262817583022461	0.27810344443603	0.923896851519177
416	9.141516	0.716709594726562	-5.8582177734375	7.45749206542969	0.841277370989767	0.404364182591775	-0.358806344561285	-0.473438293555846	0.871490926663262	-0.12790522639258	0.26097618139492	0.277476436081506	0.924607084206059
417	9.141516	0.769998779296875	-5.97138244628906	6.53660705566406	0.842881589033818	0.400096983755742	-0.359823610200032	-0.470983423222393	0.871946188258688	-0.133732792653348	0.260240738389561	0.282191864465834	0.923386435741696
418	9.141516	0.274828491210937	-4.7756689453125	7.41857299804688	0.845850721210891	0.392013482184881	-0.361748513766537	-0.467711480026482	0.871127769578701	-0.149607421340908	0.256481049745303	0.295739478010835	0.920193258108005
419	9.141516	-0.058677978515625	-4.16194519042969	8.41070983886719	0.848071168388709	0.388113006030558	-0.360754193181083	-0.465176896751803	0.871340234824898	-0.156130233791071	0.253743469031565	0.300224065866172	0.919499734746352
420	9.141516	0.147892456054688	-2.09863586425781	8.99210083007813	0.850591670522747	0.378743200384296	-0.364756628726584	-0.460417718641295	0.871519117397634	-0.16873041329765	0.253986878398212	0.311461098972425	0.915686982231604
421	9.141516	0.345481567382812	-2.68900817871094	8.62326782226562	0.853411603434237	0.362797098471222	-0.37425512750618	-0.452601292912403	0.871919330942768	-0.186838834245824	0.258535693430958	0.328838783705906	0.908308510118118
422	9.141516	0.44307861328125	-1.70525390625	8.39813598632812	0.855193997697119	0.356386278129492	-0.376340334091137	-0.450284826168131	0.870441363985429	-0.19893568605437	0.256684244988967	0.33958894655774	0.904871563123877
423	9.141516	-0.0544866943359375	0.08382568359375	9.49026489257812	0.857696015490631	0.345809899020668	-0.380490550146534	-0.444478958255791	0.870676283505729	-0.210621140934377	0.2584492226325	0.34976895671281	0.900480802816301
424	9.141516	0.041912841796875	-0.21076171875	9.10706176757813	0.85942882643944	0.338032485766329	-0.383557206752219	-0.439858071273093	0.87127754672399	-0.217716131029697	0.260589657163983	0.355822252172714	0.897487356700859
425	9.141516	0.1580712890625	0.820294189453125	9.49325866699219	0.861314398613289	0.330200715935327	-0.386141158046155	-0.435163714999459	0.871726374906151	-0.225223596545412	0.262240439080814	0.362022947461591	0.894521848599532
426	9.141516	0.356259155273438	-0.09580078125	8.64482299804687	0.862552694833616	0.325839303721248	-0.387080865951445	-0.432925395908585	0.871248044571262	-0.231305958436325	0.261874875107679	0.367090714920991	0.892561458279559
427	9.141516	0.233514404296875	1.09991271972656	8.63584167480469	0.864055973326985	0.319954823066325	-0.388633742943859	-0.430396276063318	0.869959292244008	-0.240686259244545	0.261086806462495	0.375232915713562	0.889400887370996
428	9.141516	0.190404052734375	1.40767272949219	8.51908447265625	0.865664052720879	0.314746562099909	-0.389307525579909	-0.428491764059136	0.867964004823899	-0.251064323358673	0.258883286367338	0.384152428049526	0.88623154765744
429	9.141516	0.0808319091796875	2.59440490722656	8.61668151855469	0.86682776993518	0.310978777059573	-0.389745837037082	-0.427782057245046	0.86540479824498	-0.260915784638954	0.256148645845336	0.392895323709888	0.883188052363993
430	9.141516	-0.04071533203125	2.75546997070313	8.96336059570313	0.86773647871063	0.308617653933308	-0.389600496913925	-0.427874952453046	0.862688339448113	-0.26961426899102	0.252896082567881	0.400654430477137	0.880635905900311
431	9.141516	-0.404159545898438	3.83263000488281	9.37470520019531	0.869065154658176	0.303227270927521	-0.39086951675055	-0.426858862467732	0.858996388808573	-0.282695446632212	0.250034534598152	0.412526879342037	0.875959077428053
432	9.141516	0.0383203125	3.18118469238281	8.31670532226562	0.869707620441446	0.301645331696813	-0.390664496482081	-0.426801599236831	0.857153540130467	-0.288319620440047	0.247889188620564	0.417490002883097	0.874215675710354
433	9.141516	0.168848876953125	3.95537475585938	8.00355651855469	0.869410323819285	0.301395214716156	-0.391518343609402	-0.428907983147574	0.85374906534718	-0.295212593584855	0.245282756892382	0.424586219706927	0.87152906503814
434	9.141516	0.14130615234375	3.63923217773438	8.08917846679688	0.869549549043532	0.300590234661384	-0.391827886430261	-0.431293062870032	0.848721747140963	-0.306035438879515	0.240561583962149	0.43510562712542	0.867648095465793
435	9.141516	-0.321531372070313	4.76010131835938	7.83830017089844	0.868575638055778	0.300248609359898	-0.394242480655556	-0.433952208924442	0.844991121742565	-0.312530773758106	0.239294465764666	0.442539011561343	0.864232249977234
436	9.141516	0.116158447265625	4.9672705078125	7.65029113769531	0.86919931571294	0.298623117982809	-0.394102503126259	-0.434772683584559	0.84119635052925	-0.321498699009736	0.235510643438548	0.450791452073458	0.86100046664602
437	9.141516	-0.383801879882813	5.09360778808594	7.89817565917969	0.8690564274721	0.298080029664023	-0.39482809143338	-0.436774731628374	0.837085148131031	-0.329418106043691	0.232311772582433	0.458733856058114	0.857668053284989
438	9.141516	-0.266445922851562	5.96898742675781	7.42276428222656	0.869412039334413	0.296746072995318	-0.395049963956757	-0.437999887004215	0.832892785981429	-0.338298250134979	0.228645587853063	0.467152411127194	0.854101762047929
439	9.141516	-0.370629272460938	5.93126586914063	7.59041564941406	0.869456403432157	0.295088865340991	-0.396192029302187	-0.439206281342856	0.828879063437341	-0.34649291569124	0.226149076849317	0.47527051217912	0.850279092588545
440	9.141516	-0.32811767578125	5.90551940917969	7.03776489257813	0.86937860977034	0.293874678641501	-0.397263773992981	-0.440651046636536	0.824875328754643	-0.354128997838421	0.223623540737367	0.482926873620917	0.846625151269917
441	9.141516	-0.137114868164063	6.6629443359375	6.62821655273438	0.869754576064453	0.291469510806969	-0.398211629268773	-0.44117503932487	0.820817668568329	-0.362798759152719	0.221114364281571	0.491226912165854	0.842498996244124
442	9.141516	-0.01197509765625	6.36416564941406	6.30608642578125	0.870204893593393	0.28826866784665	-0.399555525933542	-0.441431967701851	0.816352997242909	-0.372432009611674	0.218817871886606	0.500468739313892	0.837645378374751
443	9.141516	-0.1484912109375	6.79167663574219	6.20609436035156	0.870982104035747	0.284740974626947	-0.400390748916553	-0.441052292186075	0.812207671710229	-0.381826627636756	0.216478751860018	0.509157417095681	0.833004006358663
444	9.141516	-0.195194091796875	7.42036926269531	6.06538696289063	0.871033337571448	0.28267673514953	-0.401739702101183	-0.442382835339821	0.806919644749031	-0.391379756649216	0.213537705887851	0.518627564176164	0.827905246897768
445	9.141516	-0.563428344726563	7.59640319824219	5.83666259765625	0.872022901455161	0.277765550169476	-0.403016573451726	-0.441755505465065	0.801202180455477	-0.403642340971179	0.210779820497664	0.530020155439807	0.821371111068886
446	9.141516	-0.137114868164063	7.750283203125	4.90440124511719	0.873061250465885	0.275319688318205	-0.402446421476589	-0.442408773889286	0.794304316950886	-0.416359374650031	0.205032996663281	0.541553064156739	0.815280165944028
447	9.141516	-0.382604370117188	8.70230346679688	5.00798583984375	0.872835917585292	0.273545929652878	-0.404141170067322	-0.444769772983258	0.786714251343964	-0.428089401612242	0.200841504708222	0.553401582128791	0.80833741648144
448	9.141516	0.267643432617188	8.9909033203125	3.34404602050781	0.873624172101653	0.269831632599985	-0.404934187205931	-0.444941415994037	0.779867380994364	-0.440265833780243	0.196997315344454	0.56479886518071	0.801370263759306
449	9.141516	0.144898681640625	8.91486145019531	4.26852355957031	0.875098606365695	0.267171798424585	-0.403511659389652	-0.444883597000476	0.772296499929723	-0.453471830785791	0.190475757661534	0.576348285607646	0.794695941489821
450	9.141516	-0.443677368164063	8.60829895019531	3.44284057617188	0.875088475694165	0.265205111588862	-0.404828863218028	-0.446452208285936	0.765265529627873	-0.463733862123506	0.186816983767196	0.586544898495001	0.788076453540909
451	9.141516	-0.188607788085938	8.60291015625	2.88420227050781	0.875465089796966	0.265580679809037	-0.403766986093415	-0.448057748170414	0.759148633564191	-0.472162690671425	0.181121867402167	0.594272878962007	0.783603608005323
452	9.141516	-0.348475341796875	9.55732543945313	2.60278747558594	0.876751869298467	0.263758612823286	-0.402166077439633	-0.448189288732392	0.751392462637039	-0.484288889566754	0.174449193598587	0.604847717408096	0.776998531272113
453	9.141516	-0.21076171875	9.52858520507812	1.12266540527344	0.876351728370891	0.263819854593605	-0.402997186719165	-0.451023634556574	0.743129522902321	-0.49430374595217	0.169071964715415	0.614945197975542	0.770231831485879
454	9.141516	-0.137713623046875	10.2806213378906	1.0681787109375	0.877495919182588	0.262458496041712	-0.401393136056695	-0.451004411501429	0.736211746328433	-0.504566433063367	0.163082594485603	0.623785061077582	0.764392742608329
455	9.141516	-0.723894653320313	9.98962646484375	1.84476379394531	0.87686560661657	0.262320662911333	-0.402858011888448	-0.453190495004808	0.730647004778782	-0.510659700431797	0.160390408598057	0.630351349818142	0.759560460142703
456	9.141516	-1.2406201171875	9.93992980957031	0.710123291015625	0.878321974354216	0.26151816374953	-0.400198400041263	-0.452076012260834	0.726615117447981	-0.517356502070284	0.155492085023176	0.635325681147182	0.756428113154194
457	9.141516	-1.03524719238281	9.38069274902344	2.43753112792969	0.87785174481053	0.264283314325731	-0.399412873981442	-0.454432762260198	0.722951365407561	-0.520415399310886	0.151218976050212	0.638353861917001	0.754743114084505
458	9.141516	-1.06877746582031	11.5230377197266	1.16517700195313	0.879218214361317	0.262277138606564	-0.397726079229977	-0.452513230567815	0.720864072289242	-0.524963584873894	0.149020494215986	0.641533858690969	0.752480697730314
459	9.141516	-0.181422729492188	9.1537646484375	1.61124938964844	0.877894008302306	0.266691038013415	-0.39771597960132	-0.455609007011993	0.720829702044783	-0.522326500744099	0.14738569440911	0.639750287919714	0.754318915439741
460	9.141516	0.2347119140625	9.45853088378906	1.09272766113281	0.878169848758301	0.270052046754553	-0.394828581507847	-0.455776034433239	0.722938031665228	-0.519257940534679	0.145209927925513	0.635950072266434	0.757945632889447
461	9.141516	-0.568817138671875	8.94360168457031	2.03995788574219	0.87779680106424	0.27874192133215	-0.389584031158168	-0.457891508695481	0.727175290346171	-0.51142102359459	0.140741402245261	0.627310958299011	0.765945702574284
462	9.141516	-0.723894653320313	8.20234313964844	3.62306579589844	0.876819484926388	0.285922765734195	-0.386569221341189	-0.460782121620599	0.729355610522179	-0.505687877840313	0.137358753810028	0.621521170544277	0.77126130936086
463	9.141516	-1.36096984863281	10.1512902832031	3.99309631347656	0.875510844758843	0.297676769233719	-0.380617001417741	-0.465110565084272	0.732676445438859	-0.496847449974405	0.130969167961955	0.612024319253454	0.779918784031837
464	9.141516	-0.917891235351563	8.1765966796875	4.65651672363281	0.874337122705655	0.300976266546636	-0.380720215951877	-0.467386094697823	0.733473586618586	-0.49352480810592	0.130708968100561	0.609450395609451	0.781975307122655
465	9.141516	-0.726289672851563	8.689130859375	3.6452197265625	0.8726276084664	0.311358338066664	-0.376267248453245	-0.471539110550663	0.737740338999217	-0.48310460506438	0.127168880483002	0.598995139821423	0.790590221484565
466	9.141516	-0.013172607421875	8.46459777832031	5.29718444824219	0.872569258841594	0.316041900793455	-0.372478731563953	-0.472109160891335	0.741410374824397	-0.476889501148041	0.125442531571677	0.591969739974611	0.796138177848093
467	9.141516	-0.626896362304687	7.0509375	5.26245666503906	0.871698699332704	0.323766597025503	-0.367854003963797	-0.474307451190923	0.746124415241415	-0.467258813427235	0.123182057648191	0.581784794946708	0.803960591722241
468	9.141516	-0.692759399414063	7.45988708496094	6.87131103515625	0.871225198331419	0.328357828529033	-0.364894217871533	-0.4753238990526	0.749972016479711	-0.460009962377763	0.122612580030816	0.574215213087441	0.809470842141415
469	9.141516	-0.590971069335938	5.76181823730469	6.27075988769531	0.870047063919927	0.333901094976994	-0.362668120100843	-0.477676512198544	0.752843305128571	-0.452826796487271	0.12183290301946	0.567218667443389	0.814505817686772
470	9.141516	-0.520317993164063	7.13835571289063	7.47904724121094	0.869771933941175	0.338556954047971	-0.358992996859255	-0.478784414430112	0.755077799422792	-0.447909590562257	0.119424735407049	0.561459442599904	0.818841270875108
471	9.141516	-0.09340576171875	5.75583068847656	7.14613952636719	0.869132030483338	0.342925481838743	-0.356386907017606	-0.480121015923906	0.757973211770083	-0.441543225864854	0.118715305062603	0.554868204301355	0.823424527324322
472	9.141516	-0.283211059570313	5.28041931152344	8.4352587890625	0.868705098540633	0.348181180251826	-0.352308554378055	-0.48113583823538	0.762188257990124	-0.43310202556386	0.117727468906147	0.545746209423781	0.82963926978207
473	9.141516	-0.147293701171875	4.03680541992188	7.68322265625	0.868239757098309	0.351287704022569	-0.350366484122585	-0.481983609886335	0.764712620995104	-0.427675586270406	0.117692497614785	0.540195849940881	0.833268815996281
474	9.141516	-0.219743041992187	4.41342224121094	8.36759948730469	0.867918457056889	0.357444643603469	-0.34489256103775	-0.482995250738124	0.769359567674963	-0.418092625373148	0.11590142218457	0.529451775316868	0.840385434160666
475	9.141516	-0.151484985351563	2.83749938964844	7.54131774902344	0.867802428404287	0.361233787649761	-0.341217080340112	-0.483749156883406	0.771139051833495	-0.413921871797001	0.113603250262558	0.524265880443831	0.843942882031857
476	9.141516	-0.5508544921875	3.8080810546875	8.89151000976562	0.868014742469147	0.366563788151337	-0.334934913188164	-0.484351614675493	0.773602893540915	-0.408585457972217	0.109333984732395	0.516884467092276	0.849044479082969
477	9.141516	0.158670043945313	3.06502624511719	9.35195251464844	0.867305764366541	0.370954241337811	-0.331924180996295	-0.485698536114546	0.776649556560776	-0.401138876587821	0.108984600346834	0.509125148787055	0.853764569281135
478	9.141516	0.0892144775390625	2.13036987304688	9.16394348144531	0.867356220514496	0.371505221904149	-0.331175266034101	-0.485175254818519	0.779444567242314	-0.396322013908169	0.110897064192855	0.504430408177769	0.856301234647607
479	9.141516	0.262853393554688	0.829874267578125	8.12570251464844	0.866698971171019	0.376465461502415	-0.327271522847422	-0.486313834998665	0.783732963033435	-0.386343754373905	0.111048400528726	0.494000403795995	0.862340915061674
480	9.141516	0.4742138671875	0.60593994140625	8.33885925292969	0.867274273317739	0.378910430571086	-0.322896609529464	-0.485884196623201	0.785500869553003	-0.383281791118888	0.108406099058195	0.489300796582134	0.865351285982216
481	9.141516	-0.6562353515625	1.18194213867188	9.38967407226563	0.867445932446249	0.381972075464492	-0.318802270769525	-0.486387275820839	0.785911478883845	-0.381799116392628	0.104713763193004	0.486251458531444	0.867522072845414
482	9.141516	-0.0975970458984375	0.992136840820313	9.27112060546875	0.867253390360387	0.385587914209099	-0.314950023534356	-0.487222853666481	0.787419536536966	-0.377603448534307	0.102398475445223	0.480928720181886	0.870759506597952
483	9.141516	0.150287475585937	1.43521545410156	8.15983154296875	0.869038054596416	0.385367626639786	-0.31026545408939	-0.484698726126016	0.788904956598048	-0.377751392250048	0.0991967971009877	0.478665605400107	0.872375626465948
484	9.141516	-0.590971069335938	0.288599853515625	9.59923828125	0.869382609731019	0.388710324625861	-0.305087137432143	-0.484560913328732	0.791611491929086	-0.372225693793204	0.0968225137625902	0.471439847037842	0.87656709466739
485	9.141516	-0.67779052734375	-0.010777587890625	8.82025817871094	0.870046757867926	0.388384700922588	-0.303604945962321	-0.483502969611761	0.792414204111578	-0.371893274339323	0.0961432134896708	0.470358430573415	0.877222565423618
486	9.141516	-0.677191772460938	-0.005987548828125	8.91486145019531	0.8705031868696	0.389017737989801	-0.3014786910864	-0.482985794137882	0.792977691258221	-0.371363842919287	0.0945987542775832	0.468883333779395	0.878179648473506
487	9.141516	-0.549656982421875	0.0832269287109375	8.9286328125	0.87078310478949	0.389426259315708	-0.300139922317161	-0.482553893208045	0.793912226195873	-0.369925826682151	0.0942259229879723	0.466958847921408	0.879244510807418
488	9.141516	-0.188607788085938	0.5221142578125	9.24597290039063	0.870924003097266	0.389496713210331	-0.299639268500281	-0.482658743183084	0.792598379234407	-0.372596761746418	0.0923683845152632	0.469126976023913	0.878286947363275
489	9.141516	0.0604742431640625	1.16637451171875	8.55381225585938	0.8721431803772	0.385039016402816	-0.301846366168444	-0.480774794811007	0.788826053339017	-0.382895617953541	0.0906745256175982	0.479059926753576	0.873086317028781
490	9.141516	0.0652642822265625	0.980760498046875	8.95677429199219	0.87322015339055	0.381593382103406	-0.303105681978198	-0.47907488608016	0.786154576631502	-0.390446200095002	0.0892962330664983	0.486155810801669	0.869297826054975
491	9.141516	-0.37122802734375	1.62561950683594	8.83522705078125	0.874864481198781	0.377034726205774	-0.30406735236083	-0.476273485942536	0.783904453074808	-0.398318183162193	0.0881799644189823	0.493293648534443	0.86538180602012
492	9.141516	-0.394579467773437	2.05253173828125	8.24485473632813	0.876149965569789	0.375400869449343	-0.302382911304085	-0.474315889927024	0.783232207513433	-0.401959880680112	0.0859399464439691	0.495602155292238	0.864287469118288
493	9.141516	-0.617316284179688	1.95792846679688	8.80049926757813	0.877374650510671	0.37272064485532	-0.302147387114158	-0.472582898435892	0.780154437668229	-0.409907864638508	0.0829405012476384	0.502432457436027	0.860629129746133
494	9.141516	-0.216749267578125	2.45429626464844	8.68254455566406	0.878509482482779	0.370874067716709	-0.301120432855531	-0.470973225191771	0.777975519554558	-0.415858524171715	0.0800331827450439	0.507155318289257	0.858130626880675
495	9.141516	-0.314945068359375	2.87761596679688	8.63883544921875	0.879678986767367	0.368834112311614	-0.300210389285986	-0.469428600208447	0.77454721965353	-0.423926165544573	0.0761686913782654	0.513846282580978	0.854494194439864
496	9.141516	-1.14362182617188	3.72126159667969	8.98671203613281	0.880261235892021	0.367650306437916	-0.299955677995864	-0.468702991690716	0.772163812991812	-0.429046094826791	0.0738759918107695	0.518262769338154	0.852024670858727
497	9.141516	-0.95561279296875	3.80688354492188	8.40711730957031	0.880998562177041	0.365772813943248	-0.300086290959825	-0.467705755012996	0.768987913041203	-0.43578540168787	0.0713642779667108	0.524278397587172	0.848551295829378
498	9.141516	-0.842448120117188	4.42060729980469	8.61488525390625	0.881082076438512	0.365334338776986	-0.300375091326134	-0.467942195693646	0.7656514676883	-0.441370515005435	0.0687348242756932	0.529441829606554	0.84555713762859
499	9.141516	-0.73527099609375	4.02063903808594	7.60837829589844	0.881530375006299	0.363813927376792	-0.300904676248024	-0.467432958637471	0.762191509318285	-0.447851015743558	0.0664125524330616	0.535447036941835	0.841953587503216
500	9.141516	-0.726888427734375	4.12182861328125	7.50239868164063	0.881640393333824	0.363633093208076	-0.300800914835888	-0.467857204925384	0.75696133907653	-0.456200796736343	0.0618049564483932	0.54293692512795	0.837496055328632
501	9.141516	-0.816102905273438	5.60135192871094	7.347919921875	0.882686499292612	0.361099631774336	-0.300784972861	-0.466345647945653	0.75224920644337	-0.465449103605829	0.0581917572230185	0.551115402921892	0.832397460383883
502	9.141516	-1.27235412597656	6.76652893066406	7.87422546386719	0.883530438250474	0.356322465467917	-0.303987278167673	-0.464737403964149	0.747658562365638	-0.474368864364022	0.0582504080808813	0.560393589117696	0.826175474844296
503	9.141516	-0.607137451171875	6.5096630859375	6.23962463378906	0.885248828303192	0.351773084054555	-0.304286393587643	-0.461738524826578	0.743375468600297	-0.4839322756071	0.0559646913580596	0.56890123045924	0.820499447472794
504	9.141516	-0.649649047851563	6.51265686035156	6.60187133789063	0.885562299408563	0.348634093247602	-0.306975052555809	-0.461397540194772	0.736669420268264	-0.494399105120381	0.0537747502870377	0.579458742506352	0.813225578769215
505	9.141516	-0.431103515625	7.05991882324219	6.29770385742188	0.885681023836099	0.347770273641214	-0.3076117045695	-0.461663294078827	0.730073823889968	-0.503844434891332	0.049357136433605	0.588258487777435	0.807165301930701
506	9.141516	-0.719104614257813	7.87781799316406	5.65284484863281	0.885940921356264	0.345617061367627	-0.309285516566846	-0.461469963415675	0.723612024591319	-0.513255404971042	0.0464128940225643	0.597439942386227	0.800569396436056
507	9.141516	-0.854423217773438	8.20294189453125	4.74453369140625	0.885996148441116	0.344728697058981	-0.31011763956848	-0.461720166059215	0.717507002614183	-0.521534456631449	0.0427236843186425	0.605265087894244	0.794876632047146
508	9.141516	-0.919088745117188	8.19515808105469	4.57568481445313	0.886006802609417	0.343491866664261	-0.311456711703792	-0.462021404952114	0.710655474374917	-0.530570464789585	0.0390917778556108	0.613988708590364	0.788346179433645
509	9.141516	-0.74485107421875	8.48854797363281	4.3158251953125	0.885938716342572	0.34280955156906	-0.312400707806969	-0.462462369212873	0.704094042469025	-0.538869312933705	0.0352299297088627	0.62187875885308	0.78232068957689
510	9.141516	-0.690963134765625	8.66877319335937	3.93681335449219	0.886377596848795	0.341118786709085	-0.3130059570658	-0.461906099916439	0.697265054358228	-0.548146147328249	0.0312651669520625	0.630443825669615	0.775604971625711
511	9.141516	-0.904119873046875	8.73942626953125	3.40751403808594	0.886617793858869	0.339842687112852	-0.313712982882043	-0.461697245061799	0.690360864188631	-0.55698970466165	0.0272862880432314	0.638677403085973	0.768990658767829
512	9.141516	-1.39330261230469	9.14598083496094	3.80448852539063	0.886390655901053	0.340217043427128	-0.313948990272312	-0.462353336981737	0.684666267545904	-0.563437213775069	0.0232593403421764	0.644580844771596	0.764182267289933
513	9.141516	-1.4705419921875	9.73276062011719	3.29255310058594	0.886807682129183	0.33942234482793	-0.313631322970421	-0.461705751788857	0.680082256596929	-0.569487421307192	0.0199983419751054	0.649831205847748	0.759815418522623
514	9.141516	-0.7280859375	9.40703796386719	3.14166687011719	0.886781427701059	0.337701499385113	-0.315557279740966	-0.461790809866884	0.675710072863001	-0.574599987255452	0.0191819552433855	0.655266048826372	0.755154592019751
515	9.141516	-0.346679077148438	9.43577819824219	1.80644348144531	0.887382078790341	0.335436256583961	-0.316283992656397	-0.460714433680448	0.670755078073008	-0.581231310097604	0.017183039318953	0.661490848771329	0.749756360527572
516	9.141516	-0.762813720703125	9.47769104003906	2.39142700195312	0.887957656926387	0.334959181460581	-0.315172248557926	-0.459705536231341	0.667559562675368	-0.585691941415389	0.0142133551301841	0.664956071508434	0.74674721526097
517	9.141516	-0.504151611328125	9.63875610351563	2.18964660644531	0.888510501468885	0.333007853015493	-0.315681577874798	-0.458699985842999	0.662558234600518	-0.592124065336545	0.0119754652161035	0.670911585526034	0.74144064674106
518	9.141516	-0.954415283203125	9.65731750488281	1.25079895019531	0.889225771484141	0.333852140365233	-0.312762331015081	-0.457425911957416	0.658220502270612	-0.597919146256874	0.00624999186886352	0.674750708605908	0.738019253703766
519	9.141516	-0.8095166015625	9.51840637207031	2.12378356933594	0.888918376686416	0.334033730522397	-0.313441520004094	-0.458052258415431	0.653432189793855	-0.602672798375479	0.00349973566285547	0.679299521724032	0.733852786078919
520	9.141516	-0.459244995117188	9.43757446289063	1.08674011230469	0.889132163594403	0.334840521265576	-0.311970865595705	-0.457648076731592	0.648305005805446	-0.60848899522627	-0.00149449851477723	0.683800003485082	0.729667953049873
521	9.141516	-0.7424560546875	9.58067687988281	1.32624206542969	0.889531937587076	0.334933181653309	-0.31072929672011	-0.456847703885658	0.644923017295481	-0.612669957821416	-0.00480702267368976	0.686945460418864	0.726693076162785
