aX,aY,aZ,gX,gY,gZ
24.158,-3.271,-8.456,20.555,20.555,20.555
24.158,-3.271,-8.456,20.555,20.555,20.555
22.266,-9.065,-9.232,-7.227,-7.227,-7.227
17.847,-11.483,-8.768,-26.092,-26.092,-26.092
16.520,-10.080,-14.495,-34.660,-34.660,-34.660
14.739,-7.087,-7.183,-23.800,-23.800,-23.800
12.053,-0.685,2.954,-14.804,-14.804,-14.804
5.837,4.765,10.286,-17.991,-17.991,-17.991
-9.601,2.308,6.110,-33.475,-33.475,-33.475
-20.442,-1.255,-10.635,-38.332,-38.332,-38.332
-20.442,-1.255,-10.635,-38.332,-38.332,-38.332
-27.701,3.390,-4.132,28.093,28.093,28.093
-30.263,0.211,1.211,9.831,9.831,9.831
-30.263,0.211,1.211,9.831,9.831,9.831
-26.566,-2.303,-3.807,-55.410,-55.410,-55.410
-16.515,-4.496,-28.563,-38.896,-38.896,-38.896
-8.926,-6.292,-26.691,11.560,11.560,11.560
-8.926,-6.292,-26.691,11.560,11.560,11.560
-4.367,3.108,0.723,60.850,60.850,60.850
-4.367,3.108,0.723,60.850,60.850,60.850
-2.140,4.046,5.143,24.460,24.460,24.460
-3.898,1.528,-5.646,-26.792,-26.792,-26.792
-3.898,1.528,-5.646,-26.792,-26.792,-26.792
-2.954,1.389,-12.235,-9.675,-9.675,-9.675
-3.716,1.063,-12.766,-6.975,-6.975,-6.975
-3.716,1.063,-12.766,-6.975,-6.975,-6.975
-1.403,2.073,-5.444,7.713,7.713,7.713
-1.949,-0.110,-6.761,-1.651,-1.651,-1.651
-3.055,-1.168,-10.357,-10.724,-10.724,-10.724
-3.807,-0.283,-12.297,-13.075,-13.075,-13.075
-3.385,0.953,-10.908,-9.170,-9.170,-9.170
-3.218,1.872,-10.377,-3.147,-3.147,-3.147
-2.624,1.532,-9.486,5.440,5.440,5.440
-2.739,-0.034,-8.816,10.647,10.647,10.647
-2.327,-1.010,-8.758,5.051,5.051,5.051
-2.825,0.144,-9.261,-4.430,-4.430,-4.430
-2.691,2.260,-9.874,-2.875,-2.875,-2.875
-2.691,2.260,-9.874,-2.875,-2.875,-2.875
-1.571,-1.231,-7.681,11.502,11.502,11.502
-1.255,-0.713,-7.834,2.021,2.021,2.021
-1.240,1.417,-8.653,-4.041,-4.041,-4.041
-0.110,2.150,-9.251,-0.389,-0.389,-0.389
0.115,0.838,-8.682,5.887,5.887,5.887
0.316,0.326,-8.078,5.401,5.401,5.401
0.254,1.326,-9.002,4.430,4.430,4.430
0.254,1.326,-9.002,4.430,4.430,4.430
0.843,1.298,-8.504,8.451,8.451,8.451
0.594,-0.455,-8.873,4.352,4.352,4.352
-0.067,0.235,-9.998,0.447,0.447,0.447
-0.067,0.235,-9.998,0.447,0.447,0.447
-0.072,0.029,-9.400,6.955,6.955,6.955
-0.187,0.206,-10.214,5.440,5.440,5.440
-0.723,0.441,-10.846,3.886,3.886,3.886
-0.915,0.053,-11.057,3.381,3.381,3.381
-0.872,-0.235,-10.515,3.283,3.283,3.283
-0.872,-0.235,-10.515,3.283,3.283,3.283
-1.044,-0.441,-9.807,3.614,3.614,3.614
-0.996,-0.125,-10.367,4.235,4.235,4.235
-0.948,-0.402,-10.190,3.789,3.789,3.789
-0.958,-0.651,-9.965,1.166,1.166,1.166
-0.546,-0.527,-10.027,-0.719,-0.719,-0.719
-0.546,-0.527,-10.027,-0.719,-0.719,-0.719
0.129,0.034,-9.668,2.021,2.021,2.021
0.201,-0.177,-9.658,2.565,2.565,2.565
0.129,-0.680,-9.831,-0.019,-0.019,-0.019
0.129,-0.680,-9.831,-0.019,-0.019,-0.019
0.311,-0.512,-9.376,1.768,1.768,1.768
0.848,-0.201,-9.065,2.176,2.176,2.176
1.082,-0.158,-9.385,1.477,1.477,1.477
1.082,0.206,-9.697,1.651,1.651,1.651
0.891,0.086,-9.682,1.263,1.263,1.263
0.723,-0.024,-9.165,0.661,0.661,0.661
0.646,-0.460,-9.146,1.166,1.166,1.166
0.857,-0.215,-9.290,2.137,2.137,2.137
1.111,0.000,-9.012,3.808,3.808,3.808
1.149,0.182,-9.251,2.293,2.293,2.293
1.417,0.283,-9.371,-0.738,-0.738,-0.738
1.389,0.350,-9.749,-0.155,-0.155,-0.155
1.389,0.350,-9.749,-0.155,-0.155,-0.155
0.876,-0.728,-10.554,-0.622,-0.622,-0.622
0.867,-0.589,-9.989,0.544,0.544,0.544
0.843,-0.182,-9.893,1.399,1.399,1.399
0.843,-0.182,-9.893,1.399,1.399,1.399
0.962,0.038,-9.242,-1.982,-1.982,-1.982
1.015,-0.436,-9.658,-1.030,-1.030,-1.030
0.867,-0.235,-10.089,0.835,0.835,0.835
1.063,0.297,-10.458,4.430,4.430,4.430
1.178,0.488,-10.219,6.295,6.295,6.295
1.106,0.613,-9.658,3.691,3.691,3.691
1.025,0.278,-9.706,0.311,0.311,0.311
0.737,-0.158,-10.104,0.291,0.291,0.291
0.661,-0.244,-10.463,2.856,2.856,2.856
0.699,-0.469,-10.185,3.206,3.206,3.206
0.737,-0.646,-9.596,1.166,1.166,1.166
1.039,-0.081,-9.548,-0.505,-0.505,-0.505
1.101,0.326,-9.654,0.699,0.699,0.699
1.106,0.570,-9.596,1.768,1.768,1.768
0.900,0.244,-9.917,2.040,2.040,2.040
1.049,0.163,-9.395,1.710,1.710,1.710
1.073,-0.450,-8.567,0.486,0.486,0.486
1.073,-0.450,-8.567,0.486,0.486,0.486
1.154,-0.062,-10.152,-0.661,-0.661,-0.661
0.977,-0.862,-9.931,1.943,1.943,1.943
0.977,-0.862,-9.931,1.943,1.943,1.943
0.685,-1.173,-10.286,1.574,1.574,1.574
0.776,-1.025,-9.898,0.952,0.952,0.952
0.967,-0.426,-9.615,0.835,0.835,0.835
0.967,-0.426,-9.615,0.835,0.835,0.835
0.737,-0.690,-9.649,1.477,1.477,1.477
0.704,-0.551,-9.567,2.118,2.118,2.118
0.795,-0.508,-9.136,2.487,2.487,2.487
0.824,-0.220,-9.347,1.088,1.088,1.088
0.651,-0.412,-9.845,1.651,1.651,1.651
0.809,-0.378,-9.462,1.418,1.418,1.418
0.776,-0.345,-9.572,-0.253,-0.253,-0.253
0.785,-0.431,-9.802,0.699,0.699,0.699
0.584,-0.445,-10.219,1.574,1.574,1.574
0.541,-0.747,-10.027,1.088,1.088,1.088
0.733,-0.709,-9.529,1.418,1.418,1.418

17.018,3.831,-11.262,22.615,22.615,22.615
23.780,3.089,-10.616,27.588,27.588,27.588
25.647,-1.523,-9.290,26.345,26.345,26.345
22.252,-6.187,-9.768,12.862,12.862,12.862
22.252,-6.187,-9.768,12.862,12.862,12.862
17.837,-5.957,-11.210,-16.670,-16.670,-16.670
15.390,-2.844,-6.067,-38.643,-38.643,-38.643
16.013,1.379,-1.063,-26.345,-26.345,-26.345
16.013,1.379,-1.063,-26.345,-26.345,-26.345
3.328,-1.939,-1.350,-11.191,-11.191,-11.191
3.328,-1.939,-1.350,-11.191,-11.191,-11.191
-16.401,-1.312,-8.346,-19.972,-19.972,-19.972
-20.543,-3.539,-6.273,6.489,6.489,6.489
-20.543,-3.539,-6.273,6.489,6.489,6.489
-23.837,-5.923,-8.959,-8.859,-8.859,-8.859
-22.932,-3.840,-17.248,-45.618,-45.618,-45.618
-22.932,-3.840,-17.248,-45.618,-45.618,-45.618
-9.481,1.202,-27.141,0.505,0.505,0.505
-5.397,-2.615,-16.970,46.356,46.356,46.356
-1.872,-2.591,-3.826,54.322,54.322,54.322
0.397,1.379,0.120,10.802,10.802,10.802
0.397,1.379,0.120,10.802,10.802,10.802
-1.302,1.173,-9.136,-19.914,-19.914,-19.914
-2.121,0.891,-12.096,-11.463,-11.463,-11.463
-0.393,2.322,-10.300,-7.791,-7.791,-7.791
0.330,2.265,-9.117,-6.275,-6.275,-6.275
0.057,0.977,-8.557,-3.089,-3.089,-3.089
-0.182,-0.388,-8.322,0.952,0.952,0.952
-0.670,-0.733,-9.745,-3.439,-3.439,-3.439
-0.670,-0.733,-9.745,-3.439,-3.439,-3.439
-0.225,1.796,-9.970,-7.286,-7.286,-7.286
-0.287,1.868,-9.294,-1.690,-1.690,-1.690
-0.287,1.868,-9.294,-1.690,-1.690,-1.690
-0.656,0.584,-9.572,0.369,0.369,0.369
-0.661,0.675,-9.768,0.913,0.913,0.913
-0.565,0.967,-9.831,2.254,2.254,2.254
-0.565,0.967,-9.831,2.254,2.254,2.254
-0.072,0.795,-8.931,2.662,2.662,2.662
-0.354,0.469,-9.213,0.311,0.311,0.311
-0.421,0.532,-9.812,-2.487,-2.487,-2.487
-0.374,0.833,-10.434,-2.098,-2.098,-2.098
0.024,1.317,-9.745,-1.477,-1.477,-1.477
0.182,1.547,-9.242,-0.291,-0.291,-0.291
0.182,1.547,-9.242,-0.291,-0.291,-0.291
-0.335,0.895,-10.875,1.496,1.496,1.496
-0.239,0.105,-10.180,4.294,4.294,4.294
0.000,0.125,-9.831,1.982,1.982,1.982
0.000,0.125,-9.831,1.982,1.982,1.982
0.177,0.948,-9.601,-0.291,-0.291,-0.291
-0.125,0.867,-10.602,-0.699,-0.699,-0.699
-0.134,0.560,-10.156,2.098,2.098,2.098
-0.139,0.239,-9.802,2.487,2.487,2.487
0.038,0.618,-9.328,-0.505,-0.505,-0.505
-0.168,0.785,-9.500,-1.205,-1.205,-1.205
0.081,1.149,-9.596,-0.233,-0.233,-0.233
-0.125,0.699,-9.491,1.768,1.768,1.768
-0.158,0.541,-9.649,2.234,2.234,2.234
-0.096,0.479,-9.620,0.971,0.971,0.971
-0.019,0.713,-9.256,0.661,0.661,0.661
0.038,0.862,-9.208,-0.369,-0.369,-0.369
0.000,1.106,-9.606,0.078,0.078,0.078
0.000,1.106,-9.606,0.078,0.078,0.078
-0.168,0.848,-9.754,1.360,1.360,1.360
-0.125,1.063,-9.572,0.505,0.505,0.505
0.077,1.250,-9.500,1.438,1.438,1.438
0.105,1.082,-9.323,2.875,2.875,2.875
-0.062,1.015,-9.290,1.846,1.846,1.846
-0.158,1.149,-9.687,0.427,0.427,0.427
-0.139,0.838,-9.869,0.894,0.894,0.894
-0.024,0.776,-9.907,1.535,1.535,1.535
-0.244,0.781,-9.970,1.166,1.166,1.166
-0.254,0.666,-9.783,0.369,0.369,0.369
-0.211,0.575,-9.740,-0.913,-0.913,-0.913
-0.024,0.848,-9.682,-0.389,-0.389,-0.389
0.139,1.360,-9.299,0.291,0.291,0.291
0.072,1.326,-9.237,0.505,0.505,0.505
-0.172,1.025,-9.888,0.097,0.097,0.097
-0.168,0.670,-10.190,0.330,0.330,0.330
-0.168,0.670,-10.190,0.330,0.330,0.330
-0.091,0.388,-9.467,0.505,0.505,0.505
0.062,0.876,-9.294,-1.146,-1.146,-1.146
-0.134,1.235,-9.778,-1.399,-1.399,-1.399
-0.196,1.288,-10.171,-1.302,-1.302,-1.302
-0.196,1.288,-10.171,-1.302,-1.302,-1.302
0.129,0.967,-9.060,3.983,3.983,3.983
0.005,0.579,-8.935,2.195,2.195,2.195
-0.287,0.527,-9.927,-0.563,-0.563,-0.563
-0.168,0.934,-10.195,-0.272,-0.272,-0.272
0.105,1.010,-9.658,1.282,1.282,1.282
0.043,0.632,-9.361,0.311,0.311,0.311
0.057,0.747,-9.476,-1.010,-1.010,-1.010
-0.038,0.977,-9.807,-0.544,-0.544,-0.544
-0.034,1.030,-9.778,1.399,1.399,1.399
0.005,0.929,-9.266,1.379,1.379,1.379
-0.096,0.977,-9.338,-0.253,-0.253,-0.253
-0.086,1.221,-9.563,-0.661,-0.661,-0.661
-0.278,0.541,-9.764,0.466,0.466,0.466
-0.311,0.096,-9.802,1.982,1.982,1.982
-0.048,0.555,-9.649,1.341,1.341,1.341
0.101,1.188,-9.864,-0.155,-0.155,-0.155
0.048,1.235,-9.740,-0.466,-0.466,-0.466
0.081,1.259,-9.601,0.797,0.797,0.797
-0.019,1.044,-9.946,1.496,1.496,1.496
-0.019,1.044,-9.946,1.496,1.496,1.496
0.014,0.795,-9.553,2.098,2.098,2.098
0.034,0.680,-9.764,-0.253,-0.253,-0.253
0.034,0.680,-9.764,-0.253,-0.253,-0.253
-0.158,0.962,-9.974,-0.544,-0.544,-0.544
-0.115,0.737,-9.888,0.097,0.097,0.097
-0.081,0.699,-9.840,-0.097,-0.097,-0.097
0.034,0.728,-9.716,0.622,0.622,0.622
0.057,0.718,-9.079,1.166,1.166,1.166
0.057,0.718,-9.079,1.166,1.166,1.166
-0.153,1.006,-9.912,-1.865,-1.865,-1.865
-0.005,1.058,-9.553,0.466,0.466,0.466
0.105,0.934,-9.242,1.671,1.671,1.671
0.172,0.891,-9.108,1.185,1.185,1.185
-0.101,0.982,-9.721,-0.291,-0.291,-0.291
-0.182,0.977,-10.166,-0.855,-0.855,-0.855

15.644,-5.579,-9.318,111.985,111.985,111.985
18.287,-9.242,-4.798,133.259,133.259,133.259
19.714,-11.521,-1.518,144.139,144.139,144.139
19.714,-11.521,-1.518,144.139,144.139,144.139
18.574,-12.666,2.346,155.991,155.991,155.991
16.008,-13.073,6.306,160.692,160.692,160.692
14.658,-8.428,7.719,141.730,141.730,141.730
14.092,-4.209,5.133,56.342,56.342,56.342
7.144,-3.409,0.541,57.974,57.974,57.974
-2.524,-3.290,-0.632,88.904,88.904,88.904
-13.542,-3.812,3.371,106.895,106.895,106.895
-21.007,-7.350,12.498,99.318,99.318,99.318
-23.703,-11.133,14.456,29.453,29.453,29.453
-28.281,-14.485,11.205,-45.016,-45.016,-45.016
-24.699,-15.194,6.666,-47.658,-47.658,-47.658
-17.962,-24.230,12.618,7.363,7.363,7.363
-10.875,-26.073,14.284,43.558,43.558,43.558
-1.336,-10.836,11.272,57.178,57.178,57.178
2.409,-1.633,3.342,42.859,42.859,42.859
1.034,-2.318,-2.409,1.651,1.651,1.651
0.024,-7.408,-1.484,-12.667,-12.667,-12.667
0.900,-9.572,1.896,-9.209,-9.209,-9.209
2.107,-9.136,2.873,-5.634,-5.634,-5.634
2.270,-6.862,0.450,-3.750,-3.750,-3.750
2.298,-7.231,-0.560,-6.489,-6.489,-6.489
2.447,-7.815,2.073,-2.623,-2.623,-2.623
2.222,-7.829,3.874,1.923,1.923,1.923
3.520,-6.397,4.611,7.480,7.480,7.480
3.860,-6.666,4.913,7.927,7.927,7.927
3.510,-7.872,4.257,-2.273,-2.273,-2.273
3.093,-8.772,4.707,-6.742,-6.742,-6.742
3.165,-8.428,4.563,-0.816,-0.816,-0.816
3.165,-8.428,4.563,-0.816,-0.816,-0.816
3.625,-7.580,4.262,2.584,2.584,2.584
3.596,-7.690,5.042,-2.487,-2.487,-2.487
3.309,-7.776,5.263,-5.090,-5.090,-5.090
3.309,-7.776,5.263,-5.090,-5.090,-5.090
2.974,-8.480,4.391,-2.331,-2.331,-2.331
3.347,-7.413,4.166,1.535,1.535,1.535
3.347,-7.413,4.166,1.535,1.535,1.535
3.213,-7.891,4.851,-4.235,-4.235,-4.235
3.213,-7.891,4.851,-4.235,-4.235,-4.235
3.031,-8.854,4.425,2.098,2.098,2.098
3.414,-8.265,4.621,2.739,2.739,2.739
3.759,-7.800,5.224,-0.194,-0.194,-0.194
3.630,-7.729,4.654,-3.400,-3.400,-3.400
3.630,-7.729,4.654,-3.400,-3.400,-3.400
3.443,-8.523,4.458,-1.107,-1.107,-1.107
3.251,-8.820,4.506,-1.768,-1.768,-1.768
3.472,-8.083,4.808,-2.195,-2.195,-2.195
3.472,-8.083,4.808,-2.195,-2.195,-2.195
3.534,-7.647,4.592,-0.291,-0.291,-0.291
3.294,-8.591,4.654,-0.330,-0.330,-0.330
3.294,-8.591,4.654,-0.330,-0.330,-0.330
3.323,-8.509,4.583,-1.243,-1.243,-1.243
3.649,-7.336,4.386,-0.253,-0.253,-0.253
3.663,-7.341,4.549,-1.302,-1.302,-1.302
3.567,-7.729,5.172,-2.195,-2.195,-2.195
3.381,-8.260,4.975,-5.945,-5.945,-5.945
3.381,-8.260,4.975,-5.945,-5.945,-5.945
3.251,-8.514,4.788,-9.364,-9.364,-9.364
3.136,-8.777,4.496,-9.267,-9.267,-9.267
3.098,-8.332,3.457,-11.404,-11.404,-11.404
3.098,-8.332,3.457,-11.404,-11.404,-11.404
3.165,-8.509,3.472,-4.410,-4.410,-4.410
3.165,-8.509,3.472,-4.410,-4.410,-4.410
2.907,-8.547,3.318,-3.186,-3.186,-3.186
2.926,-8.557,2.696,-3.866,-3.866,-3.866
2.926,-8.557,2.696,-3.866,-3.866,-3.866
3.208,-8.571,3.706,-0.894,-0.894,-0.894
3.318,-8.231,4.295,1.593,1.593,1.593
3.079,-8.557,4.008,0.913,0.913,0.913
2.940,-8.849,3.065,-3.031,-3.031,-3.031
2.801,-9.050,2.452,-4.488,-4.488,-4.488
2.873,-9.036,2.830,-1.224,-1.224,-1.224
3.132,-8.720,4.056,1.710,1.710,1.710
3.108,-8.835,4.061,1.690,1.690,1.690
3.031,-9.017,3.462,0.622,0.622,0.622
2.916,-9.333,3.376,0.408,0.408,0.408
3.156,-9.261,3.539,-0.622,-0.622,-0.622
3.132,-9.156,3.802,-0.855,-0.855,-0.855
3.117,-8.605,4.094,0.563,0.563,0.563
3.247,-8.241,4.209,1.632,1.632,1.632
3.333,-8.351,3.692,1.807,1.807,1.807
3.170,-8.495,3.055,-1.535,-1.535,-1.535
3.170,-8.495,3.055,-1.535,-1.535,-1.535
3.127,-8.294,3.558,-0.155,-0.155,-0.155
2.801,-8.677,3.979,2.467,2.467,2.467
3.170,-8.557,4.324,3.147,3.147,3.147
3.218,-8.691,4.022,0.272,0.272,0.272
3.199,-8.940,3.132,-2.176,-2.176,-2.176
2.978,-9.117,2.931,-1.749,-1.749,-1.749
2.768,-9.218,2.720,-0.194,-0.194,-0.194
2.825,-8.897,3.261,-0.311,-0.311,-0.311
2.931,-8.662,3.860,-3.322,-3.322,-3.322
2.796,-8.830,3.692,-5.479,-5.479,-5.479
2.796,-8.830,3.692,-5.479,-5.479,-5.479
2.921,-8.672,2.816,-2.953,-2.953,-2.953
3.366,-8.217,3.251,-1.127,-1.127,-1.127
3.261,-8.734,3.673,-2.973,-2.973,-2.973
3.261,-8.734,3.673,-2.973,-2.973,-2.973
3.462,-8.509,2.629,-4.352,-4.352,-4.352
3.606,-8.796,2.519,-0.563,-0.563,-0.563
3.649,-8.811,2.193,-2.176,-2.176,-2.176
3.912,-8.576,2.318,-2.254,-2.254,-2.254
3.663,-8.744,2.600,-1.010,-1.010,-1.010
3.649,-8.552,2.615,-0.233,-0.233,-0.233
3.682,-8.342,3.113,2.098,2.098,2.098
3.472,-8.653,3.419,0.583,0.583,0.583
3.472,-8.653,3.419,0.583,0.583,0.583
3.007,-8.907,3.055,1.302,1.302,1.302
3.409,-8.571,3.730,3.614,3.614,3.614
3.314,-8.643,3.481,2.681,2.681,2.681
3.309,-8.739,3.203,-0.894,-0.894,-0.894
3.309,-8.739,3.203,-0.894,-0.894,-0.894
3.203,-9.184,2.667,-2.370,-2.370,-2.370
3.108,-9.290,2.729,1.379,1.379,1.379
2.978,-9.314,2.342,0.602,0.602,0.602
2.978,-9.314,2.342,0.602,0.602,0.602

20.629,-10.420,0.158,-32.465,-32.465,-32.465
24.330,-11.306,2.083,-35.496,-35.496,-35.496
25.293,-12.426,4.343,-40.936,-40.936,-40.936
24.019,-14.227,7.173,-55.973,-55.973,-55.973
19.355,-14.586,9.539,-84.747,-84.747,-84.747
14.174,-11.531,6.278,-114.725,-114.725,-114.725
11.626,-7.700,4.099,-104.233,-104.233,-104.233
7.662,-2.342,6.163,-66.639,-66.639,-66.639
7.662,-2.342,6.163,-66.639,-66.639,-66.639
-13.508,-15.160,13.029,-34.233,-34.233,-34.233
-23.262,-12.460,-4.018,-130.714,-130.714,-130.714
-23.262,-12.460,-4.018,-130.714,-130.714,-130.714
-20.600,-6.364,-2.217,-68.602,-68.602,-68.602
-17.047,-5.133,-5.478,-39.517,-39.517,-39.517
-15.658,-6.062,-7.001,-26.986,-26.986,-26.986
-13.676,-4.626,-7.029,-32.232,-32.232,-32.232
-11.176,-3.965,-9.840,-40.528,-40.528,-40.528
-7.638,-3.874,-11.037,-14.630,-14.630,-14.630
-5.272,-5.377,-8.926,9.539,9.539,9.539
-3.725,-4.061,-8.634,-4.080,-4.080,-4.080
-2.595,-1.906,-9.021,-23.411,-23.411,-23.411
-1.719,-0.484,-9.026,-17.330,-17.330,-17.330
-1.604,0.110,-10.410,-6.936,-6.936,-6.936
-1.786,-0.742,-11.488,-3.711,-3.711,-3.711
-1.437,-1.460,-10.434,-1.205,-1.205,-1.205
-0.867,-0.546,-9.606,1.515,1.515,1.515
-1.020,-0.613,-9.299,3.711,3.711,3.711
-1.168,-1.891,-8.878,6.606,6.606,6.606
-1.053,-2.643,-8.298,8.743,8.743,8.743
-1.106,-3.060,-7.618,5.246,5.246,5.246
-0.996,-2.385,-8.734,-3.128,-3.128,-3.128
-0.867,-0.910,-10.056,-7.150,-7.150,-7.150
-0.881,-1.456,-10.238,-4.410,-4.410,-4.410
-0.881,-1.456,-10.238,-4.410,-4.410,-4.410
-0.833,-3.764,-9.251,7.033,7.033,7.033
-0.661,-3.558,-8.844,5.829,5.829,5.829
-0.417,-3.606,-9.438,0.097,0.097,0.097
-0.417,-3.606,-9.438,0.097,0.097,0.097
-0.254,-2.696,-9.371,-1.923,-1.923,-1.923
-0.757,-2.887,-9.807,-2.973,-2.973,-2.973
-0.919,-2.902,-9.989,-2.157,-2.157,-2.157
-0.828,-3.347,-9.615,0.097,0.097,0.097
-0.311,-3.280,-8.543,0.155,0.155,0.155
0.034,-3.294,-8.054,-2.642,-2.642,-2.642
-0.081,-3.390,-8.073,-2.545,-2.545,-2.545
-0.584,-3.769,-8.816,-2.234,-2.234,-2.234
-0.479,-3.510,-9.749,-3.614,-3.614,-3.614
-0.479,-3.510,-9.749,-3.614,-3.614,-3.614
-0.670,-2.643,-10.142,-2.934,-2.934,-2.934
-0.445,-2.385,-9.548,2.409,2.409,2.409
-0.445,-2.806,-8.945,6.858,6.858,6.858
-0.488,-2.959,-8.614,6.742,6.742,6.742
-0.436,-2.840,-8.667,1.438,1.438,1.438
-0.599,-3.079,-8.931,-0.991,-0.991,-0.991
-0.733,-2.921,-9.294,-1.807,-1.807,-1.807
-0.766,-2.816,-9.496,0.136,0.136,0.136
-0.814,-2.873,-9.457,2.370,2.370,2.370
-0.867,-2.916,-9.596,3.478,3.478,3.478
-0.675,-2.830,-9.519,5.187,5.187,5.187
-0.675,-2.830,-9.519,5.187,5.187,5.187
-0.541,-2.322,-8.950,3.419,3.419,3.419
-0.364,-2.677,-8.873,6.081,6.081,6.081
-0.364,-2.677,-8.873,6.081,6.081,6.081
-0.302,-2.959,-9.194,3.458,3.458,3.458
-0.326,-2.883,-8.911,-0.797,-0.797,-0.797
-0.326,-3.098,-8.849,-0.233,-0.233,-0.233
-0.445,-3.390,-9.079,1.321,1.321,1.321
-0.498,-3.328,-9.333,2.059,2.059,2.059
-0.302,-3.510,-9.223,1.710,1.710,1.710
-0.177,-3.668,-8.835,0.039,0.039,0.039
-0.345,-3.979,-8.969,-0.447,-0.447,-0.447
-0.211,-3.668,-8.926,0.369,0.369,0.369
-0.273,-3.577,-9.170,0.369,0.369,0.369
-0.364,-3.414,-9.381,0.155,0.155,0.155
-0.287,-2.974,-9.309,1.146,1.146,1.146
-0.359,-3.127,-8.954,1.535,1.535,1.535
-0.268,-2.782,-9.290,2.021,2.021,2.021
-0.297,-3.093,-9.060,2.195,2.195,2.195
-0.374,-3.294,-9.002,1.846,1.846,1.846
-0.340,-3.199,-9.089,-0.447,-0.447,-0.447
-0.594,-3.290,-9.572,-3.186,-3.186,-3.186
-0.651,-2.921,-9.615,-1.632,-1.632,-1.632
-0.565,-2.691,-9.256,0.874,0.874,0.874
-0.565,-2.691,-9.256,0.874,0.874,0.874
-0.704,-3.443,-9.443,0.117,0.117,0.117
-0.575,-3.429,-9.026,1.088,1.088,1.088
-0.627,-3.500,-9.290,1.088,1.088,1.088
-0.541,-3.146,-9.170,-1.885,-1.885,-1.885
-0.512,-2.605,-9.898,-3.614,-3.614,-3.614
-0.421,-2.509,-9.754,-1.962,-1.962,-1.962
-0.321,-2.954,-8.691,0.991,0.991,0.991
-0.397,-3.620,-8.519,-0.447,-0.447,-0.447
-0.397,-3.620,-8.519,-0.447,-0.447,-0.447
-0.694,-3.601,-9.553,-5.809,-5.809,-5.809
-0.694,-3.601,-9.553,-5.809,-5.809,-5.809
-0.699,-2.753,-9.831,-4.177,-4.177,-4.177
-0.555,-2.615,-9.510,1.069,1.069,1.069
-0.345,-2.672,-8.782,4.974,4.974,4.974
-0.134,-3.069,-8.112,4.760,4.760,4.760
-0.134,-3.069,-8.112,4.760,4.760,4.760
-0.345,-3.462,-8.274,-0.136,-0.136,-0.136
-0.364,-3.208,-9.203,-0.214,-0.214,-0.214
-0.364,-3.208,-9.203,-0.214,-0.214,-0.214
0.038,-2.567,-8.897,1.515,1.515,1.515
0.072,-2.830,-8.725,-0.097,-0.097,-0.097
0.048,-3.582,-8.231,1.049,1.049,1.049
-0.029,-3.199,-8.725,1.710,1.710,1.710
0.187,-3.041,-9.242,0.525,0.525,0.525
0.187,-3.041,-9.242,0.525,0.525,0.525
0.986,-2.749,-7.719,1.010,1.010,1.010
0.986,-2.749,-7.719,1.010,1.010,1.010
0.781,-2.653,-7.891,-0.058,-0.058,-0.058
0.915,-2.820,-9.189,-1.399,-1.399,-1.399
0.733,-3.591,-9.045,0.058,0.058,0.058
0.733,-3.591,-9.045,0.058,0.058,0.058
0.527,-3.654,-8.844,3.750,3.750,3.750
0.986,-3.280,-8.734,2.759,2.759,2.759
1.269,-3.845,-8.227,2.817,2.817,2.817
1.269,-3.845,-8.227,2.817,2.817,2.817

11.904,-6.910,-8.729,13.367,13.367,13.367
14.136,-6.833,-9.036,18.748,18.748,18.748
18.144,-6.977,-9.232,31.571,31.571,31.571
21.251,-8.054,-8.931,49.484,49.484,49.484
21.251,-8.054,-8.931,49.484,49.484,49.484
23.995,-9.701,-5.971,61.297,61.297,61.297
24.196,-12.316,7.930,44.258,44.258,44.258
22.137,-11.473,14.892,-13.639,-13.639,-13.639
19.140,-8.720,17.148,-70.661,-70.661,-70.661
18.728,-2.974,11.947,-78.102,-78.102,-78.102
15.855,3.156,3.970,-38.313,-38.313,-38.313
2.591,-9.156,0.407,5.459,5.459,5.459
-21.290,-21.534,-0.215,22.343,22.343,22.343
-21.290,-21.534,-0.215,22.343,22.343,22.343
-23.262,-12.771,-1.283,7.830,7.830,7.830
-23.976,-6.608,-5.526,-38.021,-38.021,-38.021
-24.378,-4.765,-14.887,-33.980,-33.980,-33.980
-24.163,-12.512,-11.612,-11.832,-11.832,-11.832
-24.163,-12.512,-11.612,-11.832,-11.832,-11.832
-11.057,-9.371,-7.925,-6.606,-6.606,-6.606
-4.650,-3.314,-7.973,-11.715,-11.715,-11.715
-1.652,-0.388,-7.867,-11.521,-11.521,-11.521
-2.136,-3.117,-9.596,-18.030,-18.030,-18.030
-2.136,-3.117,-9.596,-18.030,-18.030,-18.030
0.230,-5.018,-8.911,0.602,0.602,0.602
0.872,-4.664,-8.672,-5.401,-5.401,-5.401
0.699,-3.548,-9.931,-19.292,-19.292,-19.292
0.192,-4.176,-10.621,-18.632,-18.632,-18.632
-0.335,-5.363,-10.875,-4.255,-4.255,-4.255
-0.220,-5.377,-9.304,4.235,4.235,4.235
0.455,-4.903,-6.742,2.506,2.506,2.506
0.575,-4.453,-5.526,-2.021,-2.021,-2.021
0.450,-4.506,-6.330,-3.517,-3.517,-3.517
-0.488,-4.822,-8.729,0.933,0.933,0.933
0.072,-4.065,-9.041,3.886,3.886,3.886
0.651,-3.922,-8.136,4.585,4.585,4.585
0.900,-3.855,-7.733,5.498,5.498,5.498
0.800,-4.415,-8.327,6.897,6.897,6.897
0.838,-4.453,-8.294,5.207,5.207,5.207
1.092,-4.391,-8.025,3.963,3.963,3.963
0.886,-5.133,-7.997,2.195,2.195,2.195
0.599,-5.852,-8.318,1.574,1.574,1.574
0.498,-5.885,-8.758,1.205,1.205,1.205
0.675,-5.066,-8.729,1.146,1.146,1.146
1.010,-4.669,-7.982,1.613,1.613,1.613
0.934,-5.128,-7.633,0.622,0.622,0.622
0.627,-5.612,-8.073,1.263,1.263,1.263
0.474,-5.751,-8.433,1.496,1.496,1.496
0.795,-5.349,-8.308,-1.574,-1.574,-1.574
0.943,-5.042,-8.571,-4.158,-4.158,-4.158
0.943,-5.042,-8.571,-4.158,-4.158,-4.158
1.106,-5.219,-8.619,0.525,0.525,0.525
1.326,-4.803,-8.035,3.672,3.672,3.672
1.283,-4.908,-7.733,2.953,2.953,2.953
1.293,-5.018,-8.236,-2.331,-2.331,-2.331
0.977,-5.315,-8.744,-4.779,-4.779,-4.779
0.781,-5.799,-8.255,-0.855,-0.855,-0.855
1.025,-5.253,-7.671,2.992,2.992,2.992
1.025,-5.253,-7.671,2.992,2.992,2.992
0.934,-5.028,-7.762,-1.030,-1.030,-1.030
0.814,-5.354,-8.303,-1.904,-1.904,-1.904
0.680,-5.703,-8.011,-0.272,-0.272,-0.272
0.680,-5.703,-8.011,-0.272,-0.272,-0.272
0.814,-4.884,-8.298,0.117,0.117,0.117
0.589,-4.918,-8.126,-0.117,-0.117,-0.117
0.752,-4.779,-7.987,-0.136,-0.136,-0.136
0.651,-5.023,-7.590,0.738,0.738,0.738
0.814,-4.985,-7.911,-0.291,-0.291,-0.291
0.589,-4.889,-8.988,-2.331,-2.331,-2.331
0.694,-4.741,-9.093,-2.662,-2.662,-2.662
0.718,-4.755,-8.217,-0.039,-0.039,-0.039
0.757,-4.798,-7.681,1.069,1.069,1.069
0.757,-4.798,-7.681,1.069,1.069,1.069
0.948,-4.535,-8.078,-0.233,-0.233,-0.233
0.986,-4.506,-7.920,1.088,1.088,1.088
0.757,-4.726,-8.370,-2.098,-2.098,-2.098
0.757,-4.726,-8.370,-2.098,-2.098,-2.098
0.565,-5.047,-8.705,-2.079,-2.079,-2.079
0.881,-5.306,-7.422,3.808,3.808,3.808
0.900,-5.239,-7.168,4.002,4.002,4.002
0.599,-5.258,-8.059,-0.602,-0.602,-0.602
0.306,-4.990,-8.504,-0.680,-0.680,-0.680
0.675,-5.267,-7.757,4.391,4.391,4.391
0.934,-5.631,-6.766,5.498,5.498,5.498
0.934,-5.631,-6.766,5.498,5.498,5.498
-0.067,-5.502,-8.854,-1.515,-1.515,-1.515
0.388,-5.277,-8.361,0.797,0.797,0.797
0.225,-5.574,-8.332,2.487,2.487,2.487
0.239,-5.023,-8.605,0.272,0.272,0.272
0.034,-5.037,-8.265,1.205,1.205,1.205
0.077,-4.879,-8.136,5.285,5.285,5.285
0.488,-4.822,-7.848,8.315,8.315,8.315
0.388,-4.942,-7.255,6.081,6.081,6.081
0.187,-4.755,-6.685,1.690,1.690,1.690
0.627,-4.712,-6.986,0.039,0.039,0.039
1.092,-4.535,-7.044,0.602,0.602,0.602
0.680,-4.942,-7.872,-0.661,-0.661,-0.661
0.575,-4.410,-7.331,-1.651,-1.651,-1.651
0.579,-4.425,-7.609,-1.982,-1.982,-1.982
0.809,-4.721,-8.849,-1.535,-1.535,-1.535
1.245,-5.358,-7.566,2.331,2.331,2.331
1.542,-4.472,-7.178,0.835,0.835,0.835
1.053,-4.549,-8.337,-4.002,-4.002,-4.002
1.494,-4.324,-9.184,-7.907,-7.907,-7.907
1.647,-4.975,-8.677,-4.099,-4.099,-4.099
2.006,-5.210,-7.590,3.847,3.847,3.847
1.930,-4.908,-6.948,6.819,6.819,6.819
1.930,-4.908,-6.948,6.819,6.819,6.819
2.682,-5.114,-7.858,2.681,2.681,2.681
2.682,-5.114,-7.858,2.681,2.681,2.681
2.255,-5.545,-7.753,-1.982,-1.982,-1.982
2.624,-5.392,-7.489,2.234,2.234,2.234
3.026,-5.334,-7.350,6.664,6.664,6.664
2.749,-5.928,-7.389,4.682,4.682,4.682
2.361,-5.823,-7.858,-2.098,-2.098,-2.098
2.854,-5.885,-7.839,-3.283,-3.283,-3.283
3.079,-5.612,-8.006,0.253,0.253,0.253
2.749,-5.861,-7.844,3.614,3.614,3.614
2.404,-6.388,-7.805,2.545,2.545,2.545

16.985,-5.033,-10.401,22.129,22.129,22.129
19.556,-7.824,-11.406,29.589,29.589,29.589
22.400,-10.468,-11.085,33.397,33.397,33.397
23.827,-12.096,-9.907,27.627,27.627,27.627
22.367,-12.876,-7.666,5.401,5.401,5.401
20.097,-11.717,-1.858,-22.284,-22.284,-22.284
16.348,-11.368,5.818,-65.785,-65.785,-65.785
12.321,-7.800,5.569,-101.319,-101.319,-101.319
10.961,-0.656,0.646,-78.996,-78.996,-78.996
10.961,-0.656,0.646,-78.996,-78.996,-78.996
0.623,1.341,0.872,-39.848,-39.848,-39.848
-9.970,-1.642,1.614,-42.606,-42.606,-42.606
-14.207,-7.800,1.053,7.383,7.383,7.383
-23.813,-24.302,1.786,77.694,77.694,77.694
-25.642,-25.264,-4.535,32.543,32.543,32.543
-20.835,-15.586,-12.359,-40.664,-40.664,-40.664
-20.835,-15.586,-12.359,-40.664,-40.664,-40.664
-14.677,-4.693,-7.446,2.739,2.739,2.739
-10.027,4.262,-7.058,9.753,9.753,9.753
-7.346,5.737,-6.239,7.868,7.868,7.868
-6.565,3.553,-6.895,1.865,1.865,1.865
-4.707,0.661,-7.973,6.703,6.703,6.703
-4.707,0.661,-7.973,6.703,6.703,6.703
-3.606,-0.522,-8.619,3.147,3.147,3.147
-3.778,1.619,-12.723,-15.815,-15.815,-15.815
-3.630,1.652,-12.522,-12.046,-12.046,-12.046
-3.912,-0.057,-11.607,-5.090,-5.090,-5.090
-3.218,-0.393,-11.617,2.118,2.118,2.118
-2.447,-0.675,-9.836,10.550,10.550,10.550
-1.489,-0.690,-7.638,8.859,8.859,8.859
-1.729,-1.116,-8.078,-0.913,-0.913,-0.913
-2.207,-0.623,-9.529,-5.207,-5.207,-5.207
-1.791,0.292,-9.433,-0.641,-0.641,-0.641
-1.566,-0.134,-9.587,2.545,2.545,2.545
-1.566,-0.134,-9.587,2.545,2.545,2.545
-1.642,-1.475,-10.037,4.099,4.099,4.099
-1.556,-1.015,-10.022,5.401,5.401,5.401
-1.298,-0.733,-9.429,7.461,7.461,7.461
-1.379,-1.422,-8.701,5.731,5.731,5.731
-1.336,-2.126,-9.213,1.535,1.535,1.535
-1.456,-2.404,-10.113,-1.690,-1.690,-1.690
-1.671,-1.456,-10.640,-1.651,-1.651,-1.651
-1.628,-0.733,-10.377,0.719,0.719,0.719
-1.619,-1.183,-9.563,3.031,3.031,3.031
-1.619,-1.183,-9.563,3.031,3.031,3.031
-1.709,-2.452,-8.902,0.835,0.835,0.835
-1.958,-1.925,-10.223,-5.654,-5.654,-5.654
-2.260,-1.681,-10.635,-7.150,-7.150,-7.150
-2.729,-2.145,-10.209,-6.858,-6.858,-6.858
-2.528,-2.337,-9.649,-11.152,-11.152,-11.152
-1.719,-1.915,-9.098,-15.562,-15.562,-15.562
-1.609,-1.738,-8.327,-18.457,-18.457,-18.457
-1.978,-1.283,-9.041,-18.768,-18.768,-18.768
-2.131,-0.723,-10.113,-15.970,-15.970,-15.970
-2.026,-0.484,-10.659,-13.755,-13.755,-13.755
-1.709,-0.613,-9.682,-12.454,-12.454,-12.454
-2.040,-0.804,-8.720,-10.958,-10.958,-10.958
-1.868,0.005,-9.160,-6.975,-6.975,-6.975
-1.566,0.330,-9.869,-2.642,-2.642,-2.642
-0.991,0.029,-9.160,1.049,1.049,1.049
-0.991,0.029,-9.160,1.049,1.049,1.049
-0.675,0.148,-7.867,-2.409,-2.409,-2.409
-0.857,0.886,-9.414,-6.683,-6.683,-6.683
-0.929,1.341,-10.482,-2.623,-2.623,-2.623
-0.230,0.642,-9.730,3.653,3.653,3.653
0.551,0.484,-8.112,7.480,7.480,7.480
-0.029,-1.010,-7.293,4.391,4.391,4.391
-0.029,-1.010,-7.293,4.391,4.391,4.391
0.503,0.646,-10.013,-2.467,-2.467,-2.467
0.718,0.235,-9.563,2.293,2.293,2.293
0.785,-0.196,-8.931,3.264,3.264,3.264
0.479,0.053,-8.476,1.904,1.904,1.904
0.608,0.508,-9.529,-1.632,-1.632,-1.632
0.737,-0.704,-9.749,-3.147,-3.147,-3.147
0.737,-0.704,-9.749,-3.147,-3.147,-3.147
0.369,-1.398,-8.696,-6.761,-6.761,-6.761
0.163,-0.029,-10.367,-7.830,-7.830,-7.830
0.656,0.263,-10.420,-5.498,-5.498,-5.498
0.656,0.263,-10.420,-5.498,-5.498,-5.498
1.168,-0.125,-9.955,-0.777,-0.777,-0.777
1.168,-0.125,-9.955,-0.777,-0.777,-0.777
1.130,-0.374,-9.160,1.690,1.690,1.690
0.910,-0.273,-9.452,0.855,0.855,0.855
0.934,0.043,-9.998,-0.505,-0.505,-0.505
1.255,0.311,-9.946,2.001,2.001,2.001
0.694,-1.130,-9.859,3.303,3.303,3.303
0.699,-1.101,-9.936,4.702,4.702,4.702
0.699,-1.101,-9.936,4.702,4.702,4.702
0.656,-0.690,-9.567,2.681,2.681,2.681
1.154,-1.532,-9.443,2.739,2.739,2.739
1.298,-2.212,-8.433,8.412,8.412,8.412
1.623,-1.547,-7.585,9.520,9.520,9.520
1.336,-1.307,-8.437,3.264,3.264,3.264
1.336,-1.307,-8.437,3.264,3.264,3.264
1.456,-1.226,-9.840,-2.642,-2.642,-2.642
2.011,-2.073,-8.591,4.352,4.352,4.352
2.011,-2.073,-8.591,4.352,4.352,4.352
2.528,-2.126,-7.590,9.772,9.772,9.772
2.907,-1.077,-9.012,2.778,2.778,2.778
2.375,-2.097,-9.797,2.623,2.623,2.623
2.619,-2.490,-9.457,3.711,3.711,3.711
2.547,-2.490,-8.145,8.004,8.004,8.004
2.480,-1.724,-7.719,8.490,8.490,8.490
2.466,0.153,-9.184,3.769,3.769,3.769
2.140,0.421,-11.042,-1.477,-1.477,-1.477
2.303,-0.503,-11.349,2.681,2.681,2.681
2.504,-2.011,-10.860,8.898,8.898,8.898
2.993,-3.342,-9.136,12.590,12.590,12.590
3.232,-3.974,-8.203,15.718,15.718,15.718
3.725,-2.691,-8.069,17.019,17.019,17.019
3.788,-1.642,-9.352,11.152,11.152,11.152
4.334,-0.575,-10.429,6.936,6.936,6.936
4.195,-1.585,-9.730,9.695,9.695,9.695
4.334,-2.686,-8.854,8.218,8.218,8.218
4.271,-3.251,-9.165,2.934,2.934,2.934
3.927,-3.256,-9.333,4.197,4.197,4.197
3.539,-2.591,-9.658,5.537,5.537,5.537
3.596,-1.504,-10.482,2.448,2.448,2.448
3.318,-1.662,-10.707,4.294,4.294,4.294

17.406,-3.203,-11.914,45.968,45.968,45.968
18.718,-3.970,-12.158,68.446,68.446,68.446
17.751,-5.430,-9.850,98.483,98.483,98.483
16.070,-5.909,-3.663,126.945,126.945,126.945
14.863,-6.895,4.635,138.194,138.194,138.194
15.218,-7.216,11.569,128.227,128.227,128.227
13.470,-7.355,10.870,101.261,101.261,101.261
9.103,-7.796,5.516,78.666,78.666,78.666
4.305,-6.120,1.547,73.983,73.983,73.983
0.737,-3.998,-0.369,78.802,78.802,78.802
-2.241,-2.734,0.192,96.462,96.462,96.462
-4.602,-3.936,5.349,119.154,119.154,119.154
-7.753,-8.950,8.969,122.787,122.787,122.787
-9.108,-9.658,10.568,82.765,82.765,82.765
-11.555,-7.647,4.372,24.421,24.421,24.421
-9.620,-8.002,7.796,31.066,31.066,31.066
-5.464,-11.004,15.165,50.222,50.222,50.222
-4.324,-14.907,14.940,20.206,20.206,20.206
-4.444,-17.076,9.074,-18.768,-18.768,-18.768
-0.326,-12.800,4.693,-37.264,-37.264,-37.264
-0.326,-12.800,4.693,-37.264,-37.264,-37.264
3.271,-8.753,5.550,3.147,3.147,3.147
4.223,-6.905,4.544,6.839,6.839,6.839
4.223,-6.905,4.544,6.839,6.839,6.839
4.032,-7.202,3.515,2.059,2.059,2.059
4.123,-7.982,2.591,-9.617,-9.617,-9.617
4.123,-7.982,2.591,-9.617,-9.617,-9.617
4.946,-6.053,3.644,4.527,4.527,4.527
4.324,-6.436,3.836,5.965,5.965,5.965
5.789,-6.417,5.895,5.945,5.945,5.945
5.789,-6.417,5.895,5.945,5.945,5.945
5.842,-7.164,5.852,-3.478,-3.478,-3.478
5.516,-7.374,5.684,2.584,2.584,2.584
5.464,-7.077,6.077,5.187,5.187,5.187
5.775,-6.661,6.474,0.699,0.699,0.699
5.483,-6.709,5.942,-5.013,-5.013,-5.013
5.181,-7.413,5.368,-6.955,-6.955,-6.955
5.296,-7.355,4.702,-5.557,-5.557,-5.557
5.468,-6.833,4.381,-3.283,-3.283,-3.283
5.813,-6.297,4.635,-1.263,-1.263,-1.263
5.813,-6.297,4.635,-1.263,-1.263,-1.263
5.588,-6.469,5.138,-3.186,-3.186,-3.186
5.875,-6.378,4.798,-2.545,-2.545,-2.545
5.617,-6.838,4.362,-4.041,-4.041,-4.041
5.248,-7.432,4.386,-5.090,-5.090,-5.090
5.540,-7.326,4.568,-3.167,-3.167,-3.167
5.612,-6.824,5.047,-0.544,-0.544,-0.544
5.938,-6.402,5.593,-0.311,-0.311,-0.311
5.804,-6.723,5.784,-1.321,-1.321,-1.321
5.435,-6.900,4.908,-2.137,-2.137,-2.137
5.224,-7.039,4.765,-0.369,-0.369,-0.369
5.224,-7.039,4.765,-0.369,-0.369,-0.369
5.148,-6.972,5.109,-2.914,-2.914,-2.914
5.282,-6.613,4.808,-2.875,-2.875,-2.875
5.555,-6.512,4.674,-1.962,-1.962,-1.962
5.488,-6.833,4.832,-2.837,-2.837,-2.837
5.488,-6.833,4.832,-2.837,-2.837,-2.837
5.014,-7.652,4.223,-3.866,-3.866,-3.866
4.918,-7.307,4.788,-1.360,-1.360,-1.360
5.363,-6.886,4.458,1.127,1.127,1.127
5.325,-7.039,4.439,0.661,0.661,0.661
4.980,-7.120,3.706,-0.563,-0.563,-0.563
4.889,-6.895,3.630,1.341,1.341,1.341
5.195,-6.666,4.156,3.886,3.886,3.886
4.879,-6.637,4.334,3.963,3.963,3.963
4.640,-6.460,4.358,3.672,3.672,3.672
5.210,-6.273,4.190,4.624,4.624,4.624
4.999,-6.852,4.281,4.099,4.099,4.099
4.592,-7.403,4.219,3.517,3.517,3.517
4.415,-7.010,4.530,3.517,3.517,3.517
4.870,-6.915,4.539,3.769,3.769,3.769
4.923,-6.646,4.487,5.518,5.518,5.518
4.549,-6.618,4.094,4.779,4.779,4.779
4.875,-6.038,4.310,1.399,1.399,1.399
5.416,-5.598,4.846,-0.486,-0.486,-0.486
4.851,-6.986,5.133,-2.623,-2.623,-2.623
4.396,-7.963,4.013,-6.023,-6.023,-6.023
4.731,-7.595,3.601,-5.498,-5.498,-5.498
4.353,-6.464,3.539,-5.518,-5.518,-5.518
4.425,-6.436,4.118,-3.322,-3.322,-3.322
4.659,-7.010,4.405,-4.138,-4.138,-4.138
4.846,-8.164,4.089,-6.742,-6.742,-6.742
4.496,-7.671,3.189,-5.848,-5.848,-5.848
4.338,-6.589,3.438,-1.088,-1.088,-1.088
5.358,-6.273,3.917,-2.351,-2.351,-2.351
5.397,-7.264,3.510,-6.159,-6.159,-6.159
4.980,-7.384,3.084,-7.208,-7.208,-7.208
4.975,-6.565,3.199,-6.742,-6.742,-6.742
5.449,-5.784,3.836,-1.787,-1.787,-1.787
5.832,-7.226,4.448,0.622,0.622,0.622
5.267,-8.653,3.529,-6.139,-6.139,-6.139
5.033,-8.691,2.993,-11.871,-11.871,-11.871
5.296,-7.106,3.496,-9.850,-9.850,-9.850
5.995,-6.910,4.492,-2.467,-2.467,-2.467
5.665,-8.964,4.563,-2.331,-2.331,-2.331
5.128,-9.553,3.601,-9.675,-9.675,-9.675
5.181,-8.456,2.705,-13.814,-13.814,-13.814
5.181,-8.456,2.705,-13.814,-13.814,-13.814
5.957,-7.748,4.448,0.622,0.622,0.622
5.411,-8.212,4.549,-2.526,-2.526,-2.526
5.483,-8.485,3.673,-8.956,-8.956,-8.956
5.559,-8.825,3.409,-8.296,-8.296,-8.296
5.559,-8.825,3.409,-8.296,-8.296,-8.296
5.641,-8.222,3.405,-3.478,-3.478,-3.478
5.698,-7.786,3.261,-3.536,-3.536,-3.536
5.698,-7.786,3.261,-3.536,-3.536,-3.536
5.215,-7.906,4.032,-2.720,-2.720,-2.720
5.512,-7.714,4.252,-2.875,-2.875,-2.875
5.416,-7.657,3.864,-3.283,-3.283,-3.283
4.913,-8.231,3.567,-4.624,-4.624,-4.624
4.654,-8.380,3.060,-4.585,-4.585,-4.585
4.784,-8.461,3.639,0.505,0.505,0.505
5.397,-7.413,4.774,3.808,3.808,3.808
5.775,-7.365,5.282,3.147,3.147,3.147
5.617,-8.112,4.439,-1.923,-1.923,-1.923
5.516,-8.485,2.820,-5.984,-5.984,-5.984
5.186,-8.921,2.136,-3.497,-3.497,-3.497
5.354,-8.887,2.792,1.554,1.554,1.554
5.464,-8.423,3.409,3.827,3.827,3.827

21.663,-8.643,0.962,-25.024,-25.024,-25.024
23.368,-11.540,3.893,-37.167,-37.167,-37.167
23.009,-12.316,4.089,-60.539,-60.539,-60.539
19.523,-13.101,4.884,-78.530,-78.530,-78.530
15.821,-12.163,7.891,-95.432,-95.432,-95.432
10.654,-10.654,5.124,-117.250,-117.250,-117.250
7.413,-6.139,-0.125,-119.038,-119.038,-119.038
7.413,-6.139,-0.125,-119.038,-119.038,-119.038
0.943,2.672,-3.266,-79.501,-79.501,-79.501
0.943,2.672,-3.266,-79.501,-79.501,-79.501
-14.911,-3.390,0.196,-49.484,-49.484,-49.484
-21.653,-6.326,-1.532,-95.393,-95.393,-95.393
-24.665,-7.120,-6.599,-128.441,-128.441,-128.441
-21.146,-6.053,-12.742,-103.301,-103.301,-103.301
-17.535,-7.475,-17.885,-56.245,-56.245,-56.245
-13.106,-4.865,-20.705,-37.477,-37.477,-37.477
-8.749,-2.409,-18.067,-26.228,-26.228,-26.228
-5.789,1.379,-8.231,12.395,12.395,12.395
-5.789,1.379,-8.231,12.395,12.395,12.395
-1.173,2.830,-0.110,-4.410,-4.410,-4.410
-1.508,2.385,-5.875,-26.500,-26.500,-26.500
-1.226,1.911,-10.544,-18.088,-18.088,-18.088
-0.321,2.658,-10.353,0.233,0.233,0.233
0.292,2.399,-9.338,7.966,7.966,7.966
0.402,1.274,-9.443,5.129,5.129,5.129
-0.077,-0.723,-9.864,0.291,0.291,0.291
-0.335,-0.785,-9.960,-2.312,-2.312,-2.312
-0.383,-0.388,-9.122,-1.632,-1.632,-1.632
-0.383,-0.388,-9.122,-1.632,-1.632,-1.632
0.680,1.082,-8.495,-1.107,-1.107,-1.107
1.432,0.350,-8.739,1.554,1.554,1.554
1.460,-1.168,-9.390,-0.408,-0.408,-0.408
1.460,-1.168,-9.390,-0.408,-0.408,-0.408
1.374,-0.196,-10.262,4.041,4.041,4.041
1.714,0.038,-9.218,7.907,7.907,7.907
1.561,-0.656,-8.634,7.227,7.227,7.227
1.561,-0.656,-8.634,7.227,7.227,7.227
0.905,-2.318,-8.940,0.078,0.078,0.078
0.761,-1.796,-9.314,0.758,0.758,0.758
0.675,-1.796,-9.510,3.925,3.925,3.925
0.321,-1.595,-10.128,2.137,2.137,2.137
-0.120,-1.901,-10.693,-2.195,-2.195,-2.195
0.014,-1.901,-10.137,0.447,0.447,0.447
0.354,-1.786,-9.543,5.168,5.168,5.168
0.168,-2.021,-9.419,5.984,5.984,5.984
0.244,-1.116,-10.199,2.098,2.098,2.098
-0.144,-1.073,-10.721,-3.147,-3.147,-3.147
0.067,-0.991,-9.946,-0.350,-0.350,-0.350
0.067,-0.991,-9.946,-0.350,-0.350,-0.350
-0.838,-2.169,-9.433,7.325,7.325,7.325
-0.172,-2.524,-9.376,12.706,12.706,12.706
-0.172,-2.524,-9.376,12.706,12.706,12.706
0.421,-2.782,-7.604,-0.602,-0.602,-0.602
-0.646,-1.422,-9.701,-15.135,-15.135,-15.135
-0.646,-1.422,-9.701,-15.135,-15.135,-15.135
0.886,-1.025,-9.419,6.606,6.606,6.606
0.828,-2.433,-8.634,10.064,10.064,10.064
-0.077,-2.332,-10.357,-1.224,-1.224,-1.224
-0.077,-2.332,-10.357,-1.224,-1.224,-1.224
0.996,-0.752,-10.013,2.390,2.390,2.390
0.828,-1.695,-9.084,4.507,4.507,4.507
0.579,-1.346,-9.366,3.147,3.147,3.147
0.881,-1.561,-8.878,3.633,3.633,3.633
0.733,-1.494,-8.629,2.351,2.351,2.351
0.263,-2.188,-9.701,1.205,1.205,1.205
0.565,-1.844,-9.768,4.041,4.041,4.041
1.240,-2.231,-8.064,9.306,9.306,9.306
1.240,-2.231,-8.064,9.306,9.306,9.306
1.508,-2.682,-7.106,7.344,7.344,7.344
1.432,-2.145,-7.513,1.010,1.010,1.010
1.302,-2.361,-9.357,-3.070,-3.070,-3.070
1.216,-2.586,-8.950,1.069,1.069,1.069
1.279,-1.628,-8.227,1.904,1.904,1.904
1.456,-1.077,-8.883,-1.224,-1.224,-1.224
1.791,-2.078,-9.251,0.525,0.525,0.525
1.858,-2.610,-9.208,3.866,3.866,3.866
1.700,-2.193,-8.753,3.944,3.944,3.944
1.700,-2.193,-8.753,3.944,3.944,3.944
1.810,-2.049,-8.528,2.137,2.137,2.137
1.939,-2.763,-8.945,2.642,2.642,2.642
1.786,-3.304,-8.677,-1.069,-1.069,-1.069
1.705,-2.940,-8.476,-1.768,-1.768,-1.768
2.002,-2.251,-8.389,2.662,2.662,2.662
2.571,-2.514,-8.131,6.470,6.470,6.470
2.931,-2.471,-8.399,4.274,4.274,4.274
2.849,-2.155,-8.169,0.058,0.058,0.058
2.456,-1.911,-9.117,-1.962,-1.962,-1.962
2.308,-2.184,-9.764,1.982,1.982,1.982
2.241,-2.303,-10.089,6.683,6.683,6.683
1.992,-2.275,-9.859,7.305,7.305,7.305
1.777,-2.677,-9.103,3.827,3.827,3.827
1.777,-2.677,-9.103,3.827,3.827,3.827
1.551,-2.394,-9.859,4.527,4.527,4.527
1.551,-2.394,-9.859,4.527,4.527,4.527
2.069,-2.117,-9.869,5.984,5.984,5.984
2.241,-2.174,-9.960,6.489,6.489,6.489
1.978,-2.873,-10.161,5.751,5.751,5.751
1.513,-3.821,-9.912,3.050,3.050,3.050
1.489,-4.161,-10.252,0.078,0.078,0.078
1.935,-3.754,-10.386,-0.039,-0.039,-0.039
2.413,-3.323,-8.983,3.109,3.109,3.109
2.902,-2.423,-8.801,-2.992,-2.992,-2.992
3.251,-2.399,-9.457,0.933,0.933,0.933
3.146,-2.806,-9.275,4.274,4.274,4.274
2.806,-3.213,-9.065,-0.622,-0.622,-0.622
2.552,-3.271,-9.060,-6.353,-6.353,-6.353
2.207,-3.543,-9.098,-5.168,-5.168,-5.168
2.207,-3.543,-9.098,-5.168,-5.168,-5.168
2.332,-3.405,-7.925,1.399,1.399,1.399
2.117,-3.146,-8.413,-5.013,-5.013,-5.013
2.117,-3.146,-8.413,-5.013,-5.013,-5.013
2.179,-2.203,-9.472,-5.421,-5.421,-5.421
2.275,-2.691,-10.085,4.741,4.741,4.741
2.385,-2.935,-9.740,3.361,3.361,3.361
2.385,-2.935,-9.740,3.361,3.361,3.361
2.576,-2.945,-8.998,-1.787,-1.787,-1.787
2.356,-3.098,-9.481,0.991,0.991,0.991
2.164,-2.868,-9.998,4.702,4.702,4.702
2.164,-2.868,-9.998,4.702,4.702,4.702

