aX,aY,aZ,gX,gY,gZ
-4.444,11.732,-4.966,5.013,-15.115,-13.017
-5.421,11.636,-4.607,7.713,-12.998,-18.399
-5.444,12.019,-4.990,9.151,-3.808,-22.925
-5.684,12.043,-5.784,11.463,-2.545,-23.061
-5.875,12.201,-5.727,13.134,-12.065,-15.232
-5.195,11.574,-5.622,11.774,-20.419,-5.770
-3.773,10.865,-5.243,9.967,-22.129,-10.103
-3.199,7.269,-4.343,7.441,-27.841,-22.129
-3.199,7.269,-4.343,7.441,-27.841,-22.129
0.168,-3.409,-2.998,2.603,-17.291,-38.760
2.466,-8.595,-2.016,2.098,-23.178,-36.467
5.789,-16.487,-1.197,7.227,-14.668,-22.110
9.414,-23.080,-5.286,38.915,12.084,-1.399
9.414,-23.080,-5.286,38.915,12.084,-1.399
11.607,-27.730,-11.660,96.792,29.143,9.714
-4.051,-28.453,-23.617,128.422,-7.286,-17.583
-1.504,-18.086,-24.201,35.884,55.876,-2.720
4.779,-10.626,-15.883,-54.924,63.842,13.036
4.343,-9.687,-4.448,-90.886,-5.013,2.429
0.704,-9.002,1.484,-68.699,-46.045,-9.811
-2.476,-10.381,-1.341,-15.912,-32.426,-14.416
-1.858,-11.176,-6.867,9.209,-9.539,-8.859
-1.370,-10.185,-9.591,-2.487,1.379,-4.663
-0.685,-8.442,-9.668,-18.962,6.509,-3.361
-0.685,-8.442,-9.668,-18.962,6.509,-3.361
-2.222,-9.515,-8.638,-23.197,-4.974,7.985
-1.796,-6.637,-7.877,-29.415,1.962,8.976
-1.796,-6.637,-7.877,-29.415,1.962,8.976
-0.249,-1.465,-8.404,-21.119,-1.613,13.425
0.378,-0.484,-7.858,-18.379,-14.940,11.346
0.378,-0.484,-7.858,-18.379,-14.940,11.346
-4.056,-0.010,-5.555,-23.741,0.661,-9.539
-3.960,1.192,-6.239,-14.863,6.664,-7.363
-3.122,1.982,-6.680,-6.819,-1.729,0.058
-3.065,2.978,-7.001,-6.917,-4.099,1.923
-4.415,3.400,-6.958,-8.646,1.943,-3.517
-5.727,2.399,-7.010,-3.963,4.663,-5.809
-5.962,1.647,-8.064,3.050,4.002,-2.759
-5.105,1.681,-8.227,1.515,2.137,2.701
-4.434,1.585,-8.222,-3.050,1.768,7.344
-4.329,2.164,-8.270,-1.554,4.721,9.015
-4.329,2.164,-8.270,-1.554,4.721,9.015
-4.539,1.767,-7.944,-1.593,3.653,8.102
-4.310,1.571,-8.006,-1.613,3.691,9.986
-4.056,1.547,-8.394,-0.699,6.101,13.406
-3.845,1.532,-8.691,0.389,6.975,14.746
-3.845,1.532,-8.691,0.389,6.975,14.746
-3.438,1.580,-8.322,-3.011,7.558,13.580
-3.438,1.580,-8.322,-3.011,7.558,13.580
-3.022,2.174,-8.198,-2.448,5.965,15.601
-2.672,2.519,-8.217,-0.505,1.690,16.689
-2.672,2.519,-8.217,-0.505,1.690,16.689
-3.194,2.662,-7.978,-2.875,1.321,12.065
-3.247,2.682,-7.887,-4.274,2.681,10.588
-3.247,2.682,-7.887,-4.274,2.681,10.588
-2.978,3.165,-8.064,-1.690,-0.389,9.034
-2.902,3.113,-8.270,-0.505,-2.370,7.072
-3.160,2.734,-8.672,0.680,-1.418,4.197
-3.132,2.318,-9.041,2.059,1.749,3.128
-2.988,1.935,-9.500,3.789,1.690,3.419
-2.988,1.935,-9.500,3.789,1.690,3.419
-2.710,1.317,-9.764,3.419,-0.952,2.351
-2.571,1.235,-9.567,0.913,0.641,0.952
-2.284,1.207,-9.165,-0.680,0.816,0.019
-2.284,1.207,-9.165,-0.680,0.816,0.019
-2.289,1.389,-8.212,-0.641,-1.865,0.699
-2.207,1.331,-8.284,-0.078,-1.185,0.194
-2.207,1.298,-8.476,0.563,-0.039,-1.263
-2.313,1.116,-8.705,0.175,-0.350,-2.293
-2.375,1.006,-8.643,-0.913,-0.330,-2.429
-2.456,1.077,-8.691,-1.049,0.563,-1.749
-2.456,1.077,-8.691,-1.049,0.563,-1.749
-2.557,1.188,-8.394,-0.233,0.525,-0.913
-2.629,1.015,-8.610,0.816,1.982,-1.049
-2.533,0.848,-9.007,1.477,3.944,-0.797
-2.524,0.685,-9.371,1.535,4.818,-0.291
-2.423,0.675,-9.280,0.583,4.410,0.233
-2.423,0.675,-9.280,0.583,4.410,0.233
-2.442,0.704,-9.108,-0.466,2.934,0.000
-2.720,0.838,-8.394,-1.515,0.544,-0.680
-2.792,0.814,-8.327,-1.166,2.409,-0.622
-2.605,0.900,-8.514,0.058,2.992,-0.233
-2.638,0.852,-8.557,0.583,1.030,-0.291
-2.615,0.872,-8.461,0.466,-0.253,-0.330
-2.638,0.757,-8.495,0.525,0.544,-0.661
-2.591,0.699,-8.586,1.263,1.690,-0.699
-2.543,0.766,-8.801,1.826,1.535,-0.427
-2.480,0.814,-8.863,1.865,0.602,-0.427
-2.428,0.814,-8.969,1.593,0.000,-0.699
-2.428,0.814,-8.969,1.593,0.000,-0.699
-2.447,0.752,-9.002,0.427,1.885,-1.088
-2.485,0.723,-8.902,0.447,1.496,-0.699
-2.485,0.723,-8.902,0.447,1.496,-0.699
-2.346,0.771,-9.060,0.797,1.010,0.097
-2.356,0.800,-9.002,0.233,0.894,-0.058
-2.356,0.800,-9.002,0.233,0.894,-0.058
-2.404,0.781,-8.686,-0.641,1.710,-0.019
-2.313,0.852,-8.682,-0.136,2.351,0.097
-2.241,0.891,-8.720,0.058,1.885,-0.117
-2.241,0.891,-8.720,0.058,1.885,-0.117
-2.370,0.852,-8.744,0.117,0.699,-1.010
-2.423,0.776,-8.720,0.525,1.807,-0.699
-2.404,0.771,-8.892,0.680,2.914,-0.369
-2.404,0.771,-8.892,0.680,2.914,-0.369
-2.251,0.795,-8.964,0.253,2.059,-0.408
-2.356,0.757,-8.907,0.175,0.602,-0.563
-2.423,0.690,-8.782,0.175,0.369,-0.447
-2.423,0.690,-8.782,0.175,0.369,-0.447
-2.322,0.752,-8.806,0.311,2.351,0.389
-2.322,0.752,-8.806,0.311,2.351,0.389
-2.337,0.905,-8.619,0.427,0.350,0.000
-2.456,0.709,-8.677,1.030,0.117,0.000
-2.380,0.742,-8.911,0.952,2.370,0.253
-2.380,0.742,-8.911,0.952,2.370,0.253
-2.073,0.737,-9.084,0.855,2.701,0.758
-2.073,0.737,-9.084,0.855,2.701,0.758
-2.155,0.766,-8.916,-0.039,0.175,-0.117
-2.160,0.809,-8.772,-0.486,1.166,-0.447
-2.160,0.809,-8.772,-0.486,1.166,-0.447

-6.014,12.096,-11.033,9.190,-10.841,-5.906
-4.990,12.067,-10.180,5.945,-20.944,-9.364
-5.033,11.933,-8.025,3.225,-34.447,-14.396
-5.033,11.933,-8.025,3.225,-34.447,-14.396
-4.535,11.239,-3.802,-6.742,-36.778,-12.162
-4.535,11.239,-3.802,-6.742,-36.778,-12.162
-2.375,9.199,-2.926,9.423,-30.580,-4.469
-0.943,7.264,-2.653,14.513,-29.823,-5.887
0.579,5.047,-1.619,12.590,-30.677,-12.998
2.198,0.565,-0.374,7.694,-29.415,-26.500
2.198,0.565,-0.374,7.694,-29.415,-26.500
3.716,-4.386,-0.651,1.554,-14.241,-40.897
5.301,-12.699,-2.069,20.419,17.874,-44.782
6.019,-16.985,-4.214,51.854,16.806,-32.096
6.019,-16.985,-4.214,51.854,16.806,-32.096
1.422,-25.039,-8.193,98.094,-20.827,-43.481
-4.630,-26.054,-8.945,99.648,-40.761,-51.077
-8.969,-22.587,-8.614,76.606,-34.019,-38.565
-4.243,-18.033,-7.494,36.079,5.149,-1.224
-4.243,-18.033,-7.494,36.079,5.149,-1.224
-0.019,-10.975,-1.441,-14.960,1.166,6.625
-3.654,-12.402,-1.834,-4.624,-6.917,-11.929
-7.164,-14.854,-3.879,17.388,-13.950,-15.854
-8.916,-18.225,-5.741,27.996,-16.417,-6.625
-7.346,-17.588,-7.642,15.990,-3.575,8.995
-4.142,-15.213,-8.543,-6.683,7.849,16.378
-2.337,-15.754,-7.858,-21.099,-2.856,16.572
-3.725,-14.432,-5.636,-34.039,-17.019,14.144
-5.004,-13.326,-3.280,-45.016,-21.022,12.046
-4.362,-12.287,-2.140,-42.179,-21.818,19.370
-1.279,-9.290,-3.151,-33.533,-18.321,33.728
-0.177,-4.918,-4.128,-30.755,-10.977,37.147
-0.254,-2.437,-4.334,-29.667,-7.558,28.327
-0.254,-2.437,-4.334,-29.667,-7.558,28.327
-2.035,-1.757,-2.950,-27.025,-20.439,21.294
-3.716,-1.484,-2.547,-23.839,-13.386,25.121
-4.870,0.220,-2.227,-29.492,4.488,21.604
-5.540,1.532,-1.733,-27.452,12.182,18.438
-5.540,1.532,-1.733,-27.452,12.182,18.438
-4.961,2.279,-3.022,-5.906,-6.411,23.023
-6.828,3.031,-3.041,-0.097,-6.742,22.945
-8.279,2.193,-3.266,-2.934,5.071,17.214
-8.294,1.542,-3.299,-5.129,15.407,15.601
-8.294,1.542,-3.299,-5.129,15.407,15.601
-6.666,1.389,-4.750,12.123,2.254,27.239
-6.666,1.389,-4.750,12.123,2.254,27.239
-5.727,2.811,-5.689,10.724,12.900,22.518
-6.273,2.327,-5.310,7.519,12.104,15.834
-7.058,1.753,-5.162,10.161,7.189,13.775
-7.058,1.753,-5.162,10.161,7.189,13.775
-6.316,1.537,-6.757,17.466,13.503,21.119
-6.316,1.537,-6.757,17.466,13.503,21.119
-6.378,1.437,-7.250,8.976,13.522,13.503
-7.001,1.690,-6.694,2.895,11.463,10.880
-6.962,2.073,-5.871,3.303,8.568,13.503
-6.929,2.006,-5.837,8.238,3.594,16.436
-6.747,2.466,-6.244,10.588,0.933,17.116
-6.690,3.069,-6.273,8.043,0.797,15.873
-6.522,4.176,-6.445,3.886,1.107,13.639
-7.053,4.319,-6.747,1.710,0.350,11.210
-7.149,4.228,-6.895,2.448,2.739,9.792
-7.575,3.601,-7.221,3.614,3.808,8.412
-7.686,3.074,-7.403,2.662,4.488,6.334
-7.686,3.074,-7.403,2.662,4.488,6.334
-6.967,2.404,-6.991,-3.633,4.818,3.303
-6.771,2.327,-6.737,-3.691,0.816,2.254
-6.321,2.399,-6.373,-2.040,-3.808,2.331
-6.196,2.222,-6.101,-1.030,-7.752,2.254
-5.966,1.949,-5.976,-1.885,-6.839,1.574
-5.966,1.949,-5.976,-1.885,-6.839,1.574
-5.923,1.566,-6.062,-5.071,-0.874,-1.127
-5.923,1.566,-6.062,-5.071,-0.874,-1.127
-5.617,1.384,-6.005,-4.915,-0.505,-2.059
-5.603,1.322,-5.875,-3.245,-3.206,-2.331
-5.962,1.068,-5.847,-2.137,-3.983,-2.739
-6.211,0.804,-5.990,-2.448,0.214,-4.022
-6.378,0.694,-6.302,-2.973,6.450,-5.090
-6.124,0.752,-6.474,-2.040,9.306,-4.915
-6.072,0.680,-6.795,0.253,6.062,-3.905
-6.000,0.776,-6.876,1.243,2.603,-2.856
-6.215,0.800,-6.694,0.933,0.583,-2.934
-6.263,0.867,-6.488,-1.457,2.701,-3.439
-6.273,0.872,-6.354,-3.517,5.712,-4.585
-6.364,0.709,-6.369,-3.672,5.693,-5.187
-6.426,0.623,-6.201,-2.623,3.225,-4.779
-6.622,0.570,-6.177,-0.777,0.641,-3.594
-6.599,0.575,-6.158,-0.214,0.194,-3.089
-6.618,0.536,-6.086,-1.010,1.243,-3.031
-6.402,0.584,-6.029,-1.729,2.837,-2.953
-6.407,0.551,-6.129,-1.205,3.517,-2.914
-6.354,0.512,-6.134,-0.544,3.983,-2.351
-6.201,0.532,-6.268,0.525,4.002,-1.613
-6.201,0.532,-6.268,0.525,4.002,-1.613
-6.220,0.517,-6.321,2.234,1.593,-0.311
-6.172,0.555,-6.417,1.515,2.914,-0.369
-6.077,0.589,-6.455,0.719,4.566,-0.874
-5.942,0.637,-6.508,0.797,4.838,-1.030
-6.124,0.460,-6.694,1.671,3.983,-0.602
-6.110,0.431,-6.852,2.370,3.011,-0.117
-6.259,0.417,-6.800,2.331,1.885,0.253
-6.182,0.469,-6.780,1.826,2.118,0.466
-6.201,0.436,-6.699,1.243,2.584,0.525
-6.067,0.488,-6.713,1.010,3.342,0.602
-6.129,0.436,-6.752,1.379,2.701,0.777
-6.292,0.239,-6.800,0.991,2.137,0.583
-6.445,0.268,-6.685,0.447,2.973,0.738
-6.445,0.268,-6.685,0.447,2.973,0.738
-6.263,0.378,-6.464,1.904,0.738,2.914
-6.120,0.584,-6.383,2.506,0.039,3.555
-6.005,0.694,-6.536,2.934,1.030,3.283
-5.861,0.737,-6.752,3.070,1.943,3.070
-5.693,0.752,-6.790,2.681,2.059,2.642
-5.559,0.833,-6.876,2.662,1.205,2.234
-5.555,0.757,-6.910,2.973,-0.719,1.787
-5.559,0.795,-6.910,2.837,-1.107,1.243
-5.674,0.661,-7.044,2.429,-0.894,0.389
-5.646,0.737,-7.010,1.379,0.233,-0.369
-5.780,0.565,-6.939,0.894,0.155,-0.719
-5.780,0.565,-6.939,0.894,0.155,-0.719

-6.670,6.546,-5.105,8.587,-19.584,-10.336
-6.996,7.666,-5.272,8.140,-16.339,-14.027
-8.471,7.676,-5.516,5.518,-11.443,-17.447
-7.398,9.682,-5.569,1.865,-10.258,-22.576
-7.302,10.611,-5.507,-0.758,-15.135,-25.004
-7.709,10.736,-5.167,-3.419,-21.546,-25.529
-8.447,10.923,-4.458,-8.743,-23.139,-27.258
-8.447,10.923,-4.458,-8.743,-23.139,-27.258
-9.376,11.306,-4.712,-17.214,-10.064,-30.231
-9.290,12.220,-6.575,-11.851,-8.140,-28.851
-9.290,12.220,-6.575,-11.851,-8.140,-28.851
-9.213,9.917,-7.202,6.703,-40.353,-27.899
-7.858,7.609,-5.219,0.155,-46.570,-28.676
-5.162,4.616,-2.653,-6.975,-34.563,-28.055
-1.341,0.522,-0.551,-9.228,-14.455,-31.066
3.634,-5.861,0.852,0.971,-1.243,-35.418
8.294,-14.624,-0.148,16.689,8.704,-36.506
9.500,-19.872,-2.528,29.279,22.168,-35.962
8.500,-22.204,-4.295,42.917,21.177,-50.125
5.899,-24.737,-5.765,58.227,-7.480,-82.182
0.623,-28.037,-4.276,60.189,-33.747,-90.905
-3.136,-26.461,-0.215,60.830,-42.334,-75.168
-5.837,-19.585,-0.450,57.819,-29.084,-34.447
0.239,-14.744,0.187,36.370,13.308,5.032
5.535,-8.246,1.935,2.429,43.481,3.789
0.402,-7.082,1.216,-2.759,20.633,-19.778
-6.268,-13.978,0.330,11.210,-6.295,-29.298
-9.596,-17.033,1.053,20.439,-21.974,-22.440
-9.017,-15.998,1.590,13.056,-22.887,-2.137
-4.937,-13.987,2.284,1.146,-12.084,11.327
-2.844,-12.958,2.682,-8.393,-8.393,13.852
-2.844,-12.958,2.682,-8.393,-8.393,13.852
-4.942,-13.762,0.421,-2.079,-14.591,-4.080
-5.128,-13.283,-0.297,2.681,-22.226,-1.885
-4.492,-12.297,-0.785,-0.369,-28.735,2.837
-3.649,-12.177,-0.316,-2.798,-33.572,4.702
-3.611,-13.053,0.469,-6.645,-33.164,4.643
-3.979,-12.694,1.307,-13.697,-23.081,8.063
-3.534,-10.104,1.235,-22.323,-6.373,16.611
-1.973,-8.763,-0.230,-19.972,-1.321,24.829
-1.839,-8.078,-1.197,-7.363,-10.958,25.665
-3.213,-9.132,-1.006,-0.058,-22.382,23.042
-4.635,-10.046,-0.014,-4.294,-19.254,21.643
-4.592,-9.223,0.302,-14.086,-6.392,25.743
-3.668,-7.671,0.115,-17.524,0.427,28.501
-3.285,-7.144,-0.369,-11.948,-0.544,29.084
-3.749,-6.388,-1.034,-4.119,-9.228,28.016
-4.674,-6.235,-0.991,0.971,-13.425,28.288
-5.473,-5.837,-1.250,-0.680,-5.051,29.531
-5.473,-5.837,-1.250,-0.680,-5.051,29.531
-5.042,-3.740,-1.686,-7.966,10.239,29.453
-5.473,-4.132,-1.891,-1.107,1.282,28.307
-7.116,-4.367,-1.709,1.457,-6.062,26.384
-7.829,-3.907,-1.642,-0.622,0.952,29.337
-5.746,-1.920,-2.164,-3.594,8.238,34.116
-5.090,0.129,-2.974,0.117,0.097,36.661
-5.828,-0.589,-2.160,12.395,-10.452,29.531
-5.828,-0.589,-2.160,12.395,-10.452,29.531
-9.826,-1.863,0.675,5.712,-1.671,17.622
-8.107,1.336,0.522,0.330,19.001,28.793
-5.933,3.443,-0.953,4.760,29.162,37.361
-5.435,5.708,-2.026,14.494,25.820,32.484
-5.435,5.708,-2.026,14.494,25.820,32.484
-9.180,3.941,-0.311,8.102,23.819,11.754
-10.405,4.257,0.115,-4.119,45.793,10.064
-9.017,5.641,-0.498,-3.614,66.620,16.534
-7.877,5.397,-1.963,8.335,63.881,21.507
-8.729,4.942,-2.653,13.347,48.163,15.193
-10.305,3.481,-2.562,5.479,42.859,7.849
-10.458,2.418,-2.543,-0.291,47.891,6.295
-10.176,2.289,-3.218,0.583,44.161,8.529
-10.176,1.441,-3.883,4.838,34.524,10.278
-10.176,1.441,-3.883,4.838,34.524,10.278
-9.768,1.030,-4.980,6.217,28.501,9.228
-8.993,0.742,-6.148,1.496,21.332,8.626
-8.993,0.742,-6.148,1.496,21.332,8.626
-7.245,1.073,-6.086,-2.467,22.867,7.014
-7.245,1.073,-6.086,-2.467,22.867,7.014
-6.508,0.814,-5.200,1.069,16.806,9.267
-6.110,1.159,-5.186,1.515,15.523,8.393
-6.182,0.996,-5.176,0.117,15.873,4.974
-6.048,1.020,-5.291,-1.224,17.719,2.118
-6.187,0.843,-5.454,-0.835,17.078,0.622
-6.187,0.843,-5.454,-0.835,17.078,0.622
-6.144,0.450,-6.527,1.690,18.321,-1.030
-6.129,0.436,-7.207,3.206,15.096,-1.846
-6.259,0.196,-7.537,2.293,11.288,-2.118
-6.081,0.225,-7.312,-0.602,11.113,-2.079
-6.081,0.225,-7.312,-0.602,11.113,-2.079
-6.177,-0.144,-7.767,-1.574,8.626,-2.662
-5.751,0.144,-7.312,-0.466,8.218,-3.322
-5.751,0.144,-7.312,-0.466,8.218,-3.322
-5.282,0.096,-7.518,-1.729,9.384,-3.011
-5.200,0.206,-7.527,-1.010,7.810,-2.875
-5.200,0.206,-7.527,-1.010,7.810,-2.875
-5.124,-0.110,-7.614,0.835,2.837,-1.321
-5.124,-0.110,-7.614,0.835,2.837,-1.321
-5.330,-0.412,-7.523,1.341,2.739,-1.127
-5.009,-0.345,-7.590,-0.719,6.450,-1.768
-4.932,-0.182,-7.571,-2.001,6.703,-2.370
-4.975,-0.206,-7.532,-2.059,5.304,-2.157
-5.219,-0.316,-8.107,-1.341,3.983,-1.632
-5.219,-0.316,-8.107,-1.341,3.983,-1.632
-4.836,-0.105,-7.422,-0.117,3.653,-1.671
-4.918,-0.038,-7.595,0.855,1.651,-0.058
-4.827,0.081,-7.575,0.777,0.602,-0.447
-4.860,-0.019,-7.393,0.291,0.641,-1.107
-4.860,-0.019,-7.393,0.291,0.641,-1.107
-5.052,-0.158,-7.547,0.952,2.739,-0.758
-4.870,-0.105,-7.571,0.816,3.011,-0.525
-4.923,-0.096,-7.743,0.913,2.098,-0.680
-4.923,-0.096,-7.743,0.913,2.098,-0.680
-4.899,-0.125,-7.638,-0.369,2.254,-0.719
-4.903,-0.192,-7.633,0.194,2.254,-0.544
-4.875,-0.230,-7.781,0.641,1.943,-0.194
-4.669,-0.129,-7.738,0.913,0.952,0.272
-4.697,-0.101,-7.772,0.777,0.466,0.019
-4.674,-0.086,-7.662,-0.311,1.768,-0.233
-4.592,-0.062,-7.614,-0.369,2.137,-0.525

-4.731,9.864,-7.987,-3.031,-7.499,-24.169
-4.674,8.634,-6.115,-4.158,-16.786,-27.064
-3.797,7.762,-3.998,-9.015,-11.579,-25.218
-2.734,6.613,-2.897,-8.490,-2.681,-20.380
-1.255,5.995,-2.945,0.117,-0.971,-10.977
-1.130,4.659,-3.491,7.616,-4.741,-4.624
-1.130,4.659,-3.491,7.616,-4.741,-4.624
-0.110,3.299,-3.069,3.750,-6.839,-3.342
4.894,-4.721,-1.508,-21.974,4.643,-8.140
7.346,-7.906,-1.829,-21.196,23.061,-12.706
7.346,-7.906,-1.829,-21.196,23.061,-12.706
6.503,-16.626,-7.111,45.715,18.204,-25.354
2.998,-21.184,-10.348,78.432,1.010,-34.874
-1.537,-24.570,-10.726,85.368,-18.612,-39.653
-4.377,-23.732,-12.124,77.014,-29.007,-34.544
-3.903,-19.901,-11.550,55.507,-7.830,-11.074
-3.903,-19.901,-11.550,55.507,-7.830,-11.074
1.030,-11.717,-8.964,16.320,19.720,11.657
0.704,-11.162,-6.555,3.050,10.472,1.690
-1.619,-10.094,-5.794,-4.643,2.739,-8.976
-3.745,-9.836,-5.832,0.874,-3.458,-15.873
-5.799,-11.085,-6.718,15.193,-15.154,-17.019
-5.799,-11.085,-6.718,15.193,-15.154,-17.019
-7.571,-13.082,-7.709,23.353,-18.651,-12.784
-5.612,-12.019,-8.193,-10.724,12.939,3.050
-3.836,-10.329,-7.982,-20.594,10.258,8.412
-2.954,-9.218,-7.398,-20.516,-0.447,7.053
-2.610,-8.155,-6.982,-19.506,-7.577,3.536
-2.964,-8.816,-7.120,-18.030,-9.403,-0.738
-2.773,-9.414,-7.006,-19.331,-8.257,-2.701
-1.949,-8.476,-6.795,-22.051,-6.353,-0.039
-1.551,-6.412,-6.747,-23.003,-8.490,4.158
-1.772,-5.751,-6.484,-21.604,-13.095,1.729
-1.772,-5.751,-6.484,-21.604,-13.095,1.729
-2.308,-5.895,-5.722,-22.284,-9.967,-2.739
-2.327,-4.951,-5.679,-21.449,-1.107,2.254
-2.619,-4.314,-5.952,-14.299,-1.535,6.509
-2.682,-4.511,-6.536,-8.335,-3.983,8.374
-2.121,-4.104,-6.905,-10.705,0.991,10.044
-2.121,-4.104,-6.905,-10.705,0.991,10.044
-2.447,-3.261,-6.895,-16.883,8.704,8.160
-2.940,-2.782,-6.929,-13.095,9.753,10.627
-1.853,-1.800,-7.178,-8.432,8.743,18.243
-0.819,-0.464,-7.322,-8.354,6.897,21.604
-1.671,-0.594,-7.460,-10.083,7.985,15.601
-2.710,-1.427,-7.604,-10.044,9.753,7.674
-3.184,-1.714,-6.819,-5.906,5.343,10.278
-1.896,-1.580,-6.905,-2.565,4.546,21.138
-0.713,-1.642,-7.638,-3.361,11.171,24.072
-0.713,-1.642,-7.638,-3.361,11.171,24.072
-1.839,-2.265,-8.083,-2.040,10.452,14.202
-1.944,-1.958,-8.054,-0.525,5.595,17.000
-1.853,-1.135,-7.824,-1.865,1.477,20.516
-1.853,0.709,-7.355,-2.895,0.816,19.972
-1.853,0.709,-7.355,-2.895,0.816,19.972
-3.769,1.781,-6.546,-0.427,-6.139,14.727
-4.980,1.451,-7.489,-3.575,3.808,9.403
-5.172,2.370,-7.398,-8.607,17.796,0.272
-6.354,3.314,-7.499,-7.616,17.952,-2.584
-7.408,3.860,-7.614,-1.865,7.616,0.971
-7.408,3.860,-7.614,-1.865,7.616,0.971
-5.770,4.358,-7.456,0.602,5.693,7.849
-5.708,3.381,-7.561,2.934,11.288,3.944
-4.573,3.701,-8.500,3.750,16.398,-0.194
-4.803,2.868,-9.242,2.642,18.224,-1.749
-4.937,2.658,-9.266,0.971,15.523,-1.554
-4.913,2.423,-8.820,0.155,8.490,2.021
-4.913,2.423,-8.820,0.155,8.490,2.021
-4.233,2.260,-8.121,-1.418,4.197,5.187
-3.716,2.006,-8.059,-1.729,4.449,5.226
-3.352,1.537,-8.279,-0.253,2.370,5.576
-3.045,1.269,-8.715,1.729,0.933,6.353
-3.045,1.269,-8.715,1.729,0.933,6.353
-2.380,0.886,-9.136,-0.738,1.710,5.770
-2.346,0.757,-9.194,-1.477,2.429,4.663
-2.265,0.464,-9.309,-1.768,2.429,4.818
-2.131,0.431,-9.242,-0.272,1.341,5.265
-2.121,0.354,-9.304,0.563,0.797,5.149
-1.920,0.407,-9.213,0.058,1.651,3.730
-1.863,0.455,-8.954,-1.205,1.477,1.982
-1.958,0.421,-8.571,-1.671,0.874,0.641
-2.026,0.364,-8.433,-1.185,0.913,-0.214
-2.026,0.364,-8.433,-1.185,0.913,-0.214
-2.270,0.129,-8.543,0.874,2.254,-0.194
-2.356,-0.048,-8.720,1.243,1.690,-0.758
-2.265,-0.220,-9.017,0.253,2.603,-2.390
-2.298,-0.345,-9.165,-0.583,3.847,-3.381
-2.413,-0.464,-8.959,-1.069,3.245,-3.070
-2.356,-0.225,-8.907,-0.777,2.234,-1.690
-2.389,-0.182,-8.744,0.039,1.107,-1.341
-2.461,-0.187,-8.739,0.039,0.777,-1.632
-2.308,-0.139,-8.528,-0.408,1.496,-2.176
-2.322,-0.168,-8.547,-0.874,2.662,-2.331
-2.322,-0.168,-8.547,-0.874,2.662,-2.331
-2.284,-0.072,-8.605,0.019,2.157,-1.651
-2.428,-0.172,-8.667,1.477,0.039,-1.069
-2.418,-0.364,-8.763,1.632,0.253,-0.525
-2.447,-0.326,-8.811,1.127,1.243,-0.894
-2.351,-0.321,-8.892,0.311,2.603,-0.933
-2.303,-0.292,-8.935,0.855,1.651,-0.991
-2.160,0.019,-9.108,0.272,2.662,-1.224
-2.270,-0.369,-9.041,0.097,2.118,-0.797
-2.313,-0.297,-9.141,0.622,0.894,-0.583
-2.289,-0.206,-8.921,0.233,0.466,0.175
-2.461,-0.421,-9.017,0.797,-0.350,0.602
-2.461,-0.421,-9.017,0.797,-0.350,0.602
-2.169,-0.148,-8.878,-1.166,2.409,0.350
-2.380,-0.436,-8.835,-0.680,-0.039,0.427
-2.289,-0.206,-8.682,-0.058,-0.291,0.991
-2.184,-0.029,-8.490,-0.389,0.233,1.243
-2.284,-0.172,-8.624,-0.097,0.214,1.069
-2.155,-0.110,-8.763,0.291,2.118,1.379
-2.155,-0.110,-8.763,0.291,2.118,1.379
-2.006,-0.158,-9.060,0.816,2.293,1.185
-2.059,-0.273,-9.055,0.505,1.282,0.933
-2.059,-0.273,-9.055,0.505,1.282,0.933
-2.073,-0.201,-9.136,0.952,0.544,1.069
-2.160,-0.139,-9.017,0.311,0.058,0.835
-2.160,-0.139,-9.017,0.311,0.058,0.835

-4.372,7.178,-9.783,-13.231,3.711,-23.314
-4.621,7.451,-8.466,-14.921,6.858,-24.324
-4.544,7.623,-7.341,-9.364,0.699,-20.361
-4.501,8.002,-6.249,-4.682,-6.722,-17.019
-4.688,7.781,-5.377,-5.712,-7.169,-16.961
-4.688,7.781,-5.377,-5.712,-7.169,-16.961
-4.506,5.852,-4.142,-5.848,5.479,-23.236
-4.166,4.300,-3.740,5.945,0.369,-18.982
-3.539,3.017,-2.868,14.455,-12.182,-8.335
-2.198,2.729,-2.174,21.410,-19.895,5.945
-1.216,2.150,-2.624,26.073,-20.244,11.288
0.599,1.475,-2.351,26.267,-16.825,8.043
4.516,-2.950,-2.629,27.588,-16.980,-8.665
2.806,-5.128,-1.537,15.892,2.157,-35.748
2.806,-5.128,-1.537,15.892,2.157,-35.748
3.180,-13.614,-4.358,33.242,26.636,2.934
6.311,-17.483,-11.732,59.431,9.811,1.418
8.064,-14.394,-14.097,50.961,8.432,-17.971
3.979,-18.335,-13.978,47.172,-8.082,-18.496
1.168,-17.023,-12.958,44.200,-12.764,-34.874
1.168,-17.023,-12.958,44.200,-12.764,-34.874
-0.096,-12.972,-11.253,27.821,3.575,-34.388
-0.924,-9.012,-6.852,-2.934,-7.519,-10.822
-3.074,-10.008,-5.751,3.789,-19.059,-12.667
-3.251,-10.970,-5.315,4.663,-5.401,-8.626
-0.948,-9.256,-7.762,6.897,15.057,1.146
2.346,-7.302,-10.108,20.536,18.438,6.994
2.710,-7.360,-11.296,30.716,-2.642,6.081
0.623,-9.160,-10.425,25.490,-22.790,-3.691
0.623,-9.160,-10.425,25.490,-22.790,-3.691
-4.223,-11.895,-7.580,-9.131,-9.636,-12.726
-4.425,-11.478,-6.656,-12.298,-0.699,-5.693
-4.018,-10.946,-6.895,-4.896,2.837,1.768
-3.510,-10.683,-8.227,0.758,5.129,5.421
-3.036,-10.879,-9.429,1.535,5.479,5.965
-2.279,-11.033,-9.879,-3.225,4.333,7.480
-1.829,-9.084,-9.510,-10.200,0.544,8.024
-1.829,-9.084,-9.510,-10.200,0.544,8.024
-1.575,-9.050,-8.504,-12.764,-9.870,3.808
-0.599,-9.414,-8.586,-7.694,-12.803,3.303
0.038,-9.251,-8.844,-4.177,-14.513,6.897
-1.049,-7.298,-8.682,-12.492,-9.034,7.946
-1.824,-6.886,-7.944,-26.073,-6.489,4.022
-0.718,-6.843,-7.346,-27.297,-11.327,5.459
0.632,-6.531,-7.709,-17.447,-15.212,9.403
0.632,-6.531,-7.709,-17.447,-15.212,9.403
-1.082,-4.903,-7.365,-24.266,-4.546,7.325
-1.082,-4.903,-7.365,-24.266,-4.546,7.325
-0.120,-4.022,-5.995,-23.975,-11.288,11.987
0.091,-3.012,-6.326,-10.180,-10.006,20.070
-1.417,-2.978,-7.135,-6.101,-7.810,16.592
-1.700,-2.366,-7.029,-17.136,-0.097,10.977
-1.413,-1.216,-5.804,-26.384,2.934,11.599
-1.743,0.057,-5.315,-19.798,1.671,17.835
-2.787,-0.374,-5.349,-8.140,3.206,20.206
-2.964,-0.929,-5.852,-7.247,6.878,17.350
-2.964,-0.929,-5.852,-7.247,6.878,17.350
-1.393,1.192,-5.128,-17.622,12.337,20.167
-1.053,3.069,-5.535,-6.645,10.064,25.607
-1.053,3.069,-5.535,-6.645,10.064,25.607
-1.470,2.682,-6.345,1.418,3.847,21.235
-4.190,1.168,-4.683,-9.092,7.014,5.906
-4.190,1.168,-4.683,-9.092,7.014,5.906
-6.206,1.518,-6.555,4.566,20.011,10.511
-5.674,2.662,-6.953,1.360,13.406,16.553
-4.434,3.644,-6.053,-7.946,7.344,21.216
-2.236,4.961,-6.211,-10.142,13.036,24.577
-1.662,5.574,-7.341,0.544,14.435,23.605
-2.658,4.353,-8.476,11.055,10.375,16.242
-3.491,3.927,-9.151,8.276,12.007,8.995
-3.366,2.840,-9.309,1.865,15.115,5.323
-3.366,2.840,-9.309,1.865,15.115,5.323
-2.835,2.356,-9.725,1.477,16.067,5.518
-1.346,3.639,-9.132,4.197,11.696,7.227
-1.709,3.481,-8.533,3.633,6.781,1.515
-3.232,3.232,-8.126,4.702,6.178,-5.168
-4.496,2.792,-8.270,3.750,10.686,-9.986
-4.851,2.298,-8.662,2.953,15.854,-8.801
-4.305,1.863,-9.390,6.042,14.066,-2.817
-3.591,1.753,-9.687,7.130,7.208,3.458
-2.849,1.963,-9.634,4.585,2.856,6.314
-2.203,2.227,-9.587,2.195,2.973,5.790
-1.671,2.102,-9.740,0.641,4.799,3.866
-1.302,1.561,-9.687,1.360,4.119,3.225
-1.192,1.020,-9.931,3.439,0.622,3.517
-1.264,0.488,-9.888,3.109,-2.040,3.167
-1.283,0.393,-9.764,0.039,0.525,1.030
-1.240,0.192,-9.515,-2.390,1.593,-1.418
-1.374,-0.034,-9.175,-2.642,0.583,-2.195
-1.393,0.000,-8.988,-0.874,-0.758,-1.341
-1.590,-0.383,-8.964,1.185,-3.322,-0.855
-1.566,-0.321,-8.878,1.224,-1.282,-0.544
-1.360,-0.239,-8.782,1.030,1.088,-0.194
-1.384,-0.369,-9.012,2.254,0.563,-0.330
-1.379,-0.292,-9.065,2.312,0.971,-0.544
-1.346,-0.220,-9.031,1.671,0.991,-0.350
-1.484,-0.034,-9.045,1.632,0.699,-0.408
-1.470,0.081,-9.021,1.166,1.010,-0.466
-1.566,-0.230,-9.266,1.904,1.865,-0.272
-1.480,-0.326,-9.548,2.409,2.584,0.408
-1.370,-0.359,-9.572,1.399,2.370,0.525
-1.355,-0.302,-9.457,0.272,1.321,0.389
-1.355,-0.302,-9.457,0.272,1.321,0.389
-1.494,-0.115,-9.170,-0.389,-0.350,-0.078
-1.494,-0.115,-9.170,-0.389,-0.350,-0.078
-1.446,-0.211,-9.103,-0.661,1.826,-0.447
-1.470,-0.364,-9.275,0.583,0.486,-0.019
-1.437,-0.474,-9.467,0.777,-0.369,0.427
-1.470,-0.536,-9.500,0.389,-0.369,0.350
-1.595,-0.656,-9.429,0.330,-1.282,0.175
-1.523,-0.441,-9.290,-1.224,-0.194,0.233
-1.542,-0.326,-9.141,-1.496,0.058,0.427
-1.532,-0.211,-9.036,-1.399,-0.466,1.010
-1.360,0.000,-8.878,-1.438,-0.525,1.263
-1.326,0.077,-8.729,-1.030,-0.408,1.515
-1.331,0.177,-8.701,-0.447,-0.389,1.651
-1.322,0.153,-8.715,-0.253,-0.039,1.341
-1.365,0.067,-8.830,-0.136,0.641,0.680
-1.365,0.067,-8.830,-0.136,0.641,0.680

-2.926,9.261,-10.257,22.246,2.798,-5.071
-2.610,9.103,-10.784,19.662,-0.952,-11.113
-2.696,8.653,-9.960,12.084,-6.975,-17.078
-2.696,8.653,-9.960,12.084,-6.975,-17.078
-3.462,7.499,-7.188,4.469,-13.619,-24.907
-4.429,7.561,-6.479,7.150,-16.106,-26.228
-4.822,7.125,-6.172,9.772,-14.843,-27.549
-3.156,6.407,-6.292,7.325,-9.656,-26.053
-2.605,5.444,-6.469,8.801,-13.678,-23.275
-2.605,5.444,-6.469,8.801,-13.678,-23.275
-2.701,1.997,-6.120,14.727,-24.421,-19.137
-1.518,-0.192,-5.631,6.858,-20.380,-20.808
-0.436,-2.768,-5.114,-2.584,-15.931,-26.772
1.748,-7.288,-4.956,-10.239,-11.404,-31.532
4.444,-10.381,-5.176,-5.323,-5.032,-32.309
5.468,-14.571,-4.913,11.929,1.282,-26.967
6.675,-18.182,-7.341,29.687,15.912,-18.923
7.221,-20.581,-11.061,48.241,17.330,-11.676
6.321,-22.223,-13.781,64.599,6.062,-18.982
5.377,-16.525,-11.727,53.545,-3.866,-34.447
2.121,-16.650,-11.382,23.586,-14.066,-10.336
1.571,-14.188,-8.179,3.050,0.835,4.177
1.197,-11.957,-6.555,-3.614,6.606,9.500
1.197,-11.957,-6.555,-3.614,6.606,9.500
-1.245,-9.634,-4.123,0.680,-1.923,-5.459
-1.949,-10.573,-5.033,6.567,0.000,-9.636
-1.949,-10.573,-5.033,6.567,0.000,-9.636
-1.963,-11.128,-7.475,19.623,-3.730,-4.954
-2.897,-11.516,-7.571,13.580,-6.761,-5.168
-3.409,-11.353,-7.446,0.952,-3.517,-3.808
-3.409,-11.353,-7.446,0.952,-3.517,-3.808
-2.643,-9.807,-7.609,-10.666,1.554,2.720
-2.361,-9.859,-7.978,-5.304,-4.838,2.487
-2.418,-10.621,-8.236,-1.807,-10.200,2.623
-2.643,-10.726,-8.298,-6.606,-8.548,4.507
-2.634,-9.496,-7.614,-18.418,-2.992,6.955
-1.614,-8.567,-7.164,-26.520,-1.049,8.024
-1.025,-8.131,-6.996,-20.478,-9.073,7.888
-1.456,-8.998,-7.365,-7.305,-19.254,9.170
-1.456,-8.998,-7.365,-7.305,-19.254,9.170
-3.199,-8.303,-6.603,-25.781,-1.593,10.899
-2.380,-6.469,-5.895,-35.729,6.295,16.145
-1.432,-5.286,-6.187,-24.771,1.127,22.731
-1.159,-6.713,-6.646,-5.654,-5.382,25.335
-1.159,-6.713,-6.646,-5.654,-5.382,25.335
-2.251,-6.302,-7.053,-14.804,0.214,18.030
-1.475,-6.038,-6.709,-25.723,7.616,21.430
-0.211,-5.229,-6.292,-23.703,11.094,30.639
-0.211,-5.229,-6.292,-23.703,11.094,30.639
0.493,-2.059,-6.575,-9.675,4.838,34.524
0.541,-2.069,-6.613,-13.172,4.566,25.140
-0.785,-3.060,-6.086,-17.447,8.082,18.321
-0.785,-3.060,-6.086,-17.447,8.082,18.321
-0.048,-0.158,-5.775,-9.500,14.552,26.753
0.512,1.149,-5.981,-6.062,7.208,23.916
-0.555,0.747,-5.938,-7.558,7.499,15.426
-1.982,1.025,-5.741,-7.227,15.679,8.937
-3.084,1.901,-6.014,-4.119,20.322,7.888
-3.084,1.901,-6.014,-4.119,20.322,7.888
-3.093,2.174,-7.283,0.991,21.857,9.656
-1.566,4.037,-8.495,1.224,20.303,16.359
-1.595,4.262,-8.978,0.971,20.342,13.503
-1.422,4.607,-9.218,-0.272,21.468,8.335
-1.973,4.707,-8.777,-1.263,16.203,3.944
-2.950,4.310,-8.361,-1.632,10.705,2.098
-3.792,4.420,-8.567,-1.690,16.631,1.088
-4.104,5.162,-8.404,-2.798,18.865,0.661
-3.898,4.812,-8.356,-0.933,15.990,2.215
-3.170,4.808,-8.792,3.283,14.591,5.032
-2.710,4.808,-8.983,6.237,12.376,6.917
-2.356,4.707,-8.926,5.187,10.530,7.130
-2.705,4.568,-8.801,3.789,9.714,4.488
-3.098,4.314,-9.026,3.827,10.278,1.554
-3.242,3.850,-9.141,3.614,11.210,-0.253
-3.242,3.850,-9.141,3.614,11.210,-0.253
-2.768,2.581,-9.309,4.663,3.925,2.817
-2.768,2.581,-9.309,4.663,3.925,2.817
-1.868,0.939,-10.238,4.177,0.952,2.603
-1.312,0.287,-11.085,2.098,4.488,0.350
-0.881,-0.206,-11.138,-0.117,3.866,-0.797
-0.690,-0.388,-10.798,-0.855,-1.496,-0.719
-0.690,-0.388,-10.798,-0.855,-1.496,-0.719
-0.728,-0.125,-9.673,-2.603,-5.829,0.291
-0.690,-0.201,-9.347,-3.691,-3.769,-1.069
-0.704,-0.211,-9.026,-4.022,-3.167,-2.176
-0.781,-0.297,-9.084,-2.467,-3.886,-2.157
-0.819,-0.508,-9.127,-0.272,-4.663,-1.787
-0.972,-0.666,-9.146,0.078,-4.527,-1.729
-0.972,-0.666,-9.146,0.078,-4.527,-1.729
-0.895,-0.771,-9.156,-1.185,-0.661,-1.826
-0.761,-0.646,-8.978,-1.282,-0.486,-1.690
-0.761,-0.646,-8.978,-1.282,-0.486,-1.690
-1.010,-0.584,-8.586,-1.243,-1.418,-1.904
-0.982,-0.541,-8.638,-0.408,0.058,-1.535
-1.020,-0.579,-8.883,0.350,1.049,-1.554
-1.020,-0.599,-9.021,0.874,2.040,-2.079
-1.116,-0.627,-8.921,0.777,0.933,-2.351
-1.293,-0.766,-9.079,1.399,0.136,-1.593
-1.034,-0.584,-9.256,1.613,2.001,-1.107
-1.106,-0.637,-9.208,0.874,0.447,-1.768
-1.135,-0.436,-9.127,0.389,0.641,-1.768
-1.149,-0.192,-8.993,0.311,0.563,-1.885
-1.149,-0.192,-8.993,0.311,0.563,-1.885
-1.274,-0.220,-8.964,0.505,0.505,-1.554
-1.207,-0.172,-8.969,1.030,1.030,-1.185
-1.226,-0.378,-9.247,2.118,-0.097,-1.127
-1.159,-0.488,-9.553,2.040,0.155,-0.971
-1.101,-0.541,-9.701,0.991,0.680,-0.758
-1.154,-0.584,-9.663,0.680,-0.272,-0.272
-1.082,-0.460,-9.443,-0.097,-0.563,-0.136
-1.097,-0.417,-9.328,-0.971,-0.408,-0.233
-1.097,-0.417,-9.328,-0.971,-0.408,-0.233
-1.154,-0.278,-9.084,-1.049,-0.913,0.058
-1.140,-0.201,-8.964,-1.321,-0.680,0.019
-1.092,-0.244,-9.045,-0.389,0.194,0.311
-1.058,-0.134,-8.988,-0.097,-0.039,0.622
-1.082,-0.263,-9.060,0.000,-0.078,0.350
-1.034,-0.220,-9.098,-0.097,0.505,0.311
-0.991,-0.311,-9.041,-0.097,0.389,0.350

-1.968,8.998,-5.938,-10.239,-31.513,-16.281
-0.608,6.757,-3.520,-7.499,-30.017,-17.796
-0.599,4.851,-2.864,-2.273,-25.043,-16.359
-0.172,2.749,-3.462,2.720,-17.194,-17.155
1.039,1.968,-4.338,0.855,-13.347,-17.641
1.393,1.044,-4.166,-6.178,-16.883,-19.409
1.393,1.044,-4.166,-6.178,-16.883,-19.409
1.523,-5.267,-5.799,-10.064,2.798,-27.200
4.243,-7.092,-8.691,11.152,22.945,-23.295
4.219,-9.912,-9.989,27.200,15.795,-17.311
4.219,-9.912,-9.989,27.200,15.795,-17.311
2.964,-15.199,-8.907,22.110,9.714,-31.591
3.347,-15.505,-11.229,30.716,24.033,-32.737
5.852,-11.382,-14.413,39.284,24.208,-23.664
3.510,-11.219,-15.304,35.593,-5.790,-14.144
1.116,-11.933,-11.286,17.000,-18.340,-18.049
0.067,-10.357,-8.658,-4.041,-7.694,-15.212
0.704,-8.825,-7.393,-9.636,6.936,-7.130
0.991,-8.519,-7.058,-2.992,10.530,-1.923
0.292,-7.676,-7.025,7.499,8.199,-2.487
-0.278,-8.265,-7.125,16.689,5.887,-1.321
-1.010,-9.443,-8.179,23.042,6.800,1.243
-1.010,-9.443,-8.179,23.042,6.800,1.243
-1.092,-9.553,-10.108,23.023,10.588,5.032
-0.579,-9.567,-10.870,19.526,11.812,5.362
-0.417,-9.668,-11.224,16.495,5.731,2.526
-0.417,-9.668,-11.224,16.495,5.731,2.526
-2.217,-10.956,-10.061,3.497,-7.383,-4.313
-2.217,-10.956,-10.061,3.497,-7.383,-4.313
-2.988,-11.813,-9.352,-7.169,-4.313,-3.439
-2.816,-11.928,-9.304,-13.716,-1.030,1.729
-1.748,-10.712,-9.472,-14.999,-0.563,7.907
-1.451,-10.357,-9.189,-15.873,-6.256,10.297
-0.910,-10.477,-9.213,-21.022,-2.001,12.764
0.249,-8.485,-8.701,-24.208,1.846,19.118
1.192,-7.666,-8.131,-17.796,-9.073,23.372
0.283,-8.121,-7.719,-10.608,-17.971,20.089
-0.177,-8.203,-7.513,-15.251,-11.443,15.698
0.407,-6.728,-7.120,-23.159,-0.039,17.408
1.063,-5.665,-6.666,-22.945,0.369,20.691
0.809,-4.487,-6.455,-15.601,-8.238,20.225
-0.259,-3.864,-6.455,-10.433,-12.803,15.154
-1.020,-3.237,-6.421,-11.249,-8.451,12.356
-1.705,-3.582,-5.923,-15.698,-3.109,14.902
-1.705,-3.582,-5.923,-15.698,-3.109,14.902
-0.661,-2.054,-5.377,-9.753,-4.119,30.930
0.417,0.182,-6.259,-4.605,-6.334,37.613
0.115,0.986,-6.661,-1.885,-6.431,31.513
0.115,0.986,-6.661,-1.885,-6.431,31.513
-3.587,0.527,-6.287,-10.394,13.561,3.847
-2.729,2.112,-6.326,-6.411,13.600,10.724
-1.116,3.783,-6.469,-1.282,7.053,18.068
-1.116,3.783,-6.469,-1.282,7.053,18.068
-0.077,4.607,-7.034,4.099,14.630,13.444
-0.939,3.721,-8.241,10.783,18.651,7.344
-1.106,3.232,-8.988,11.171,19.700,6.567
-0.742,3.874,-9.074,7.053,14.241,7.927
-0.910,4.243,-8.605,2.157,12.726,8.704
-0.603,4.252,-8.916,4.080,19.001,8.587
-0.517,4.353,-9.524,8.937,18.729,6.955
-0.843,3.883,-9.706,6.373,14.513,2.953
-1.556,3.323,-9.491,-0.311,12.279,-0.680
-3.079,3.582,-9.213,-3.769,11.502,-2.895
-3.079,3.582,-9.213,-3.769,11.502,-2.895
-4.563,3.869,-9.515,-2.176,12.473,-1.185
-3.678,3.510,-9.998,-1.282,9.500,2.642
-2.763,3.266,-10.334,-0.661,4.430,4.566
-2.169,2.840,-10.056,-4.119,0.486,5.382
-1.427,2.820,-9.500,-6.955,0.058,4.993
-1.049,2.576,-9.026,-7.286,-0.816,3.128
-0.919,2.337,-8.547,-6.198,-1.846,1.457
-1.063,1.954,-8.303,-4.002,-3.750,0.311
-1.121,1.609,-8.279,-2.603,-4.080,-0.699
-1.279,1.188,-8.476,-1.127,-2.837,-1.690
-1.279,1.188,-8.476,-1.127,-2.837,-1.690
-1.307,0.642,-9.098,3.283,-1.399,-1.865
-1.322,0.599,-9.170,3.769,-0.797,-1.613
-1.489,0.278,-9.256,3.439,-1.224,-1.729
-1.307,0.374,-9.395,3.011,1.360,-1.185
-1.087,0.311,-9.347,2.778,1.535,-1.127
-1.269,-0.019,-9.649,3.381,0.641,-1.418
-1.159,-0.010,-9.840,2.992,1.613,-0.408
-1.053,-0.120,-9.721,2.118,0.214,-0.253
-1.053,-0.120,-9.721,2.118,0.214,-0.253
-1.159,-0.206,-9.472,-0.233,2.545,-0.680
-1.073,-0.292,-9.491,-0.233,1.807,-0.466
-1.216,-0.292,-9.366,0.155,0.117,-1.069
-1.216,-0.292,-9.366,0.155,0.117,-1.069
-1.197,-0.407,-9.136,-1.282,0.058,-1.535
-1.302,-0.479,-8.907,-0.039,-0.369,-1.069
-1.302,-0.479,-8.907,-0.039,-0.369,-1.069
-1.312,-0.618,-8.825,-0.175,0.058,-0.991
-1.312,-0.618,-8.825,-0.175,0.058,-0.991
-1.245,-0.670,-8.883,0.175,0.233,-0.583
-1.211,-0.737,-9.060,1.243,-0.408,-0.291
-1.192,-0.728,-9.012,1.302,-1.069,0.233
-1.192,-0.728,-9.012,1.302,-1.069,0.233
-1.355,-0.881,-9.074,1.107,-0.913,0.136
-1.221,-0.733,-9.141,0.525,0.894,0.175
-1.173,-0.555,-9.060,0.816,0.214,0.874
-1.216,-0.455,-8.950,0.583,-0.447,0.952
-1.269,-0.374,-9.065,0.699,-0.136,1.069
-1.130,-0.211,-8.988,0.777,0.758,1.651
-1.130,-0.211,-8.988,0.777,0.758,1.651
-1.049,-0.163,-9.151,0.622,0.933,1.205
-1.121,-0.225,-9.290,0.525,0.758,0.874
-1.101,-0.144,-9.290,0.350,0.427,0.933
-1.125,-0.129,-9.247,0.117,0.272,0.835
-1.006,-0.010,-9.165,-0.447,0.855,0.680
-1.130,0.005,-9.112,-0.583,0.097,0.408
-0.996,0.086,-9.045,-0.641,0.563,0.427
-1.116,-0.034,-9.012,0.000,0.486,0.117
-1.116,-0.077,-9.117,-0.058,1.088,-0.117
-1.116,-0.077,-9.117,-0.058,1.088,-0.117
-1.183,-0.120,-9.247,-0.486,1.263,-0.680
-1.298,-0.096,-9.151,-0.641,0.835,-0.699
-1.283,-0.196,-9.117,-0.525,0.971,-0.699
-1.307,-0.177,-9.141,-0.194,1.107,-0.641
-1.326,-0.187,-9.156,-0.622,1.030,-0.544

-4.008,12.239,-9.318,-2.584,-14.183,-18.515
-3.055,11.368,-7.800,-8.179,-20.186,-19.059
-3.055,11.368,-7.800,-8.179,-20.186,-19.059
-0.804,7.963,-4.798,-14.999,-24.907,-22.634
-0.393,6.244,-3.831,-13.347,-25.412,-26.228
-0.474,3.558,-2.897,-11.327,-27.472,-24.907
-0.283,1.293,-2.763,-9.617,-22.576,-23.372
-0.283,1.293,-2.763,-9.617,-22.576,-23.372
2.662,-2.998,-4.961,-6.547,4.197,-15.348
4.434,-6.287,-5.804,0.408,5.576,-13.716
4.013,-9.069,-7.360,12.143,2.953,-21.876
3.089,-13.015,-9.151,27.608,8.335,-30.716
1.858,-16.310,-11.176,42.160,9.345,-34.000
1.140,-19.772,-11.789,50.242,-0.544,-24.013
1.058,-20.250,-11.909,53.253,0.078,-4.255
2.117,-18.718,-13.537,49.814,15.562,12.415
3.931,-14.907,-13.446,34.660,29.201,18.671
4.760,-11.358,-11.760,12.415,30.969,17.058
3.754,-9.735,-9.601,-1.030,20.050,4.566
1.259,-9.342,-7.786,-1.224,6.411,-8.995
1.259,-9.342,-7.786,-1.224,6.411,-8.995
-1.757,-10.195,-6.646,8.918,-0.214,-12.143
-3.002,-9.888,-8.102,13.658,-0.272,-6.101
-3.376,-10.080,-9.122,15.232,-3.575,-2.079
-3.376,-10.080,-9.122,15.232,-3.575,-2.079
-2.954,-10.013,-10.348,7.519,0.971,1.379
-2.241,-9.644,-10.415,1.166,3.808,2.545
-2.241,-9.644,-10.415,1.166,3.808,2.545
-1.781,-9.069,-9.285,-8.276,1.457,3.886
-1.432,-8.624,-8.954,-10.180,-0.835,3.866
-1.231,-8.600,-9.026,-9.462,-5.440,2.195
-1.542,-9.328,-9.151,-8.879,-7.150,1.593
-1.547,-8.528,-8.710,-12.356,-4.449,3.283
-0.618,-7.183,-8.327,-16.670,-5.071,6.042
0.057,-6.929,-8.073,-12.745,-11.560,7.674
0.057,-6.929,-8.073,-12.745,-11.560,7.674
-1.087,-7.671,-8.658,-1.787,-6.003,10.375
-0.737,-6.321,-8.514,-7.830,1.904,9.986
-0.072,-5.315,-8.614,-13.969,0.525,11.657
0.239,-5.492,-8.313,-12.454,-3.283,13.950
-0.761,-4.860,-8.040,-10.472,-4.119,12.395
-1.144,-3.438,-7.566,-12.998,-1.166,10.744
-0.038,-2.528,-7.446,-14.319,-1.846,12.123
0.383,-2.399,-7.374,-10.336,-7.150,13.794
0.383,-2.399,-7.374,-10.336,-7.150,13.794
-2.667,-2.279,-7.049,-11.793,-2.875,5.090
-2.212,-2.131,-6.757,-14.727,1.632,7.305
-2.212,-2.131,-6.757,-14.727,1.632,7.305
-0.057,0.230,-6.546,-7.868,-4.585,17.155
-1.346,0.651,-6.512,-3.866,-7.519,12.026
-2.792,-0.077,-6.345,-4.779,-3.206,4.682
-2.653,-0.675,-6.187,-7.635,4.177,4.741
-2.049,0.163,-6.958,-5.343,5.731,10.977
-2.049,0.163,-6.958,-5.343,5.731,10.977
-3.754,0.895,-7.743,1.379,-0.738,10.608
-4.472,0.335,-7.393,-3.905,0.699,7.441
-3.711,0.311,-7.039,-9.734,6.470,9.850
-2.509,0.579,-7.513,-4.119,9.617,15.931
-2.509,0.579,-7.513,-4.119,9.617,15.931
-1.863,2.404,-8.873,8.529,-0.894,19.156
-2.413,2.107,-8.327,-0.019,5.323,10.763
-2.413,2.107,-8.327,-0.019,5.323,10.763
-2.964,1.695,-8.088,-1.651,13.270,8.918
-2.203,2.375,-8.447,1.904,9.986,12.415
-1.494,2.892,-8.188,0.117,4.935,12.434
-1.992,3.232,-7.312,-1.515,2.137,9.228
-2.988,3.812,-6.780,-2.467,4.838,5.051
-3.721,3.922,-7.350,0.894,11.482,3.847
-3.721,3.922,-7.350,0.894,11.482,3.847
-3.237,3.912,-9.452,7.111,13.075,7.383
-3.237,3.912,-9.452,7.111,13.075,7.383
-2.715,3.860,-9.941,3.905,8.782,6.761
-2.615,2.591,-9.917,-4.041,3.186,0.680
-2.672,2.356,-9.654,-2.895,1.651,-0.097
-2.969,2.059,-9.457,-0.602,-2.157,0.816
-3.180,1.705,-9.251,-0.525,-3.808,1.243
-3.180,1.705,-9.251,-0.525,-3.808,1.243
-2.744,1.058,-8.931,-5.751,1.263,-1.438
-2.710,0.819,-8.710,-5.207,-0.039,-1.321
-2.705,0.670,-8.480,-3.322,-1.360,-0.389
-2.667,0.436,-8.456,-1.496,-0.874,0.486
-2.524,0.359,-8.490,-0.019,-0.933,0.952
-2.366,0.105,-8.614,-0.097,0.000,0.253
-2.236,0.038,-8.840,-0.136,2.001,-0.855
-2.088,0.019,-9.050,0.291,1.554,-1.224
-2.198,-0.201,-9.079,0.816,-0.486,-1.107
-2.380,-0.192,-8.964,0.777,-0.894,-1.302
-2.380,-0.192,-8.964,0.777,-0.894,-1.302
-2.615,-0.383,-8.749,-0.350,1.651,-1.399
-2.648,-0.532,-8.667,0.175,0.175,-0.797
-2.495,-0.393,-8.567,0.583,-1.302,0.136
-2.581,-0.407,-8.480,0.583,-2.487,0.583
-2.337,-0.230,-8.504,0.097,0.233,0.816
-2.337,-0.230,-8.504,0.097,0.233,0.816
-2.016,-0.196,-8.897,1.321,2.487,1.185
-1.925,-0.120,-8.959,1.962,1.224,1.146
-1.925,-0.120,-8.959,1.962,1.224,1.146
-1.939,-0.249,-9.050,1.127,0.719,-0.214
-1.978,-0.220,-8.983,0.719,0.641,-0.816
-2.026,-0.230,-8.998,0.019,1.574,-1.224
-2.026,-0.125,-8.907,-0.019,1.923,-1.379
-2.207,-0.239,-8.820,-0.058,0.835,-1.302
-2.207,-0.239,-8.820,-0.058,0.835,-1.302
-2.322,-0.120,-8.686,-0.797,2.079,-1.379
-2.385,-0.278,-8.734,-0.389,1.535,-1.166
-2.284,-0.163,-8.859,0.039,2.234,-0.719
-2.303,-0.235,-8.662,-0.408,1.379,-0.447
-2.255,-0.196,-8.863,-0.058,2.040,-0.019
-2.255,-0.196,-8.863,-0.058,2.040,-0.019
-2.169,-0.172,-8.859,0.097,1.399,0.408
-2.102,-0.062,-8.897,0.447,1.399,0.427
-2.174,-0.235,-8.959,0.719,1.107,0.661
-2.174,-0.235,-8.959,0.719,1.107,0.661
-2.035,-0.220,-9.060,0.253,0.835,0.525
-2.016,-0.053,-8.926,-0.291,0.816,0.408
-2.064,0.043,-8.801,-0.408,0.291,0.291
-2.164,-0.057,-8.940,0.253,0.486,0.544
-2.002,0.043,-9.074,0.855,1.185,0.525
-2.093,-0.139,-8.931,0.175,0.758,0.214

-1.666,2.428,-8.595,-2.429,26.811,-4.605
-1.460,3.127,-8.744,-2.429,34.660,-2.914
-1.111,3.745,-9.065,-1.477,46.997,-1.904
-0.790,4.793,-9.917,2.001,52.729,-1.146
-0.134,5.708,-10.472,4.061,52.262,1.302
1.121,7.106,-10.108,3.283,45.307,4.274
1.279,7.422,-9.768,-0.991,38.526,4.974
1.432,7.480,-9.270,-6.295,36.933,2.739
2.423,7.322,-8.950,-10.627,34.097,0.350
3.184,7.197,-8.495,-13.639,29.570,0.816
3.184,7.197,-8.495,-13.639,29.570,0.816
4.267,6.235,-9.132,-14.280,28.152,-5.071
4.468,5.512,-9.218,-14.804,22.809,-8.626
3.481,4.951,-7.973,-19.467,19.564,-9.287
2.916,4.731,-6.752,-21.954,23.605,-6.586
2.916,4.731,-6.752,-21.954,23.605,-6.586
5.914,1.954,-5.942,-12.356,19.953,5.498
6.431,0.670,-7.369,-6.295,21.022,6.975
6.431,0.670,-7.369,-6.295,21.022,6.975
5.492,-2.294,-2.830,-14.552,31.804,5.615
6.383,-6.378,-4.195,0.835,46.278,15.232
8.921,-5.258,-5.579,7.383,66.134,29.317
10.741,-6.412,-4.597,7.150,51.233,36.020
12.129,-7.882,-3.946,6.645,39.168,31.008
14.322,-7.355,-5.516,11.987,46.065,23.916
13.997,-6.929,-7.513,31.629,40.566,15.096
9.582,-9.208,-8.236,43.500,11.696,-3.517
6.637,-12.177,-7.978,33.339,-0.797,-14.668
7.188,-11.023,-8.222,20.614,6.159,-8.082
8.892,-8.859,-8.437,19.118,5.615,5.615
8.892,-8.859,-8.437,19.118,5.615,5.615
10.142,-5.976,-7.451,10.705,-15.348,5.731
10.271,-4.559,-6.469,2.040,-14.338,-4.702
10.271,-4.559,-6.469,2.040,-14.338,-4.702
7.872,-6.326,-7.815,3.419,-12.162,-17.194
7.700,-6.033,-8.083,-0.058,-6.781,-14.688
8.696,-4.568,-7.820,-4.177,-9.714,-10.006
7.719,-3.869,-6.857,-2.312,-20.419,-9.559
6.709,-3.591,-6.306,-0.466,-22.420,-12.220
7.628,-2.969,-6.747,1.282,-15.407,-6.625
8.571,-2.763,-7.642,9.015,-13.580,-1.962
7.714,-2.796,-8.701,12.784,-19.254,-1.088
7.365,-4.065,-8.935,6.547,-18.107,-3.730
8.816,-4.267,-8.519,-4.624,-12.784,-2.254
10.219,-2.883,-7.767,-6.547,-15.543,2.021
9.294,-0.637,-6.675,-0.641,-29.337,-0.563
7.494,-2.093,-6.441,3.225,-36.059,-8.820
7.527,-2.610,-6.752,-0.466,-26.869,-14.047
7.010,-3.524,-7.259,2.021,-24.907,-12.667
7.010,-3.524,-7.259,2.021,-24.907,-12.667
4.343,-0.915,-7.935,0.136,-25.723,-6.625
3.840,-1.178,-7.240,-4.255,-26.772,-4.041
3.840,-1.178,-7.240,-4.255,-26.772,-4.041
5.981,-0.077,-7.527,-4.721,-18.068,1.923
6.206,1.245,-7.527,1.535,-27.608,6.606
4.252,0.848,-7.532,4.158,-34.369,-0.874
2.940,-0.804,-7.686,2.157,-28.657,-7.325
3.745,-0.517,-7.939,0.486,-22.595,-4.022
3.725,1.398,-8.279,4.352,-27.316,4.041
2.289,2.145,-8.796,10.938,-43.403,5.926
0.690,1.312,-8.303,6.314,-44.938,0.058
0.690,1.312,-8.303,6.314,-44.938,0.058
1.250,0.139,-8.011,-0.058,-17.369,-3.808
1.001,0.560,-8.658,6.664,-22.518,1.049
0.747,0.704,-8.634,5.207,-25.373,1.651
1.015,1.025,-8.236,-2.059,-16.106,-1.826
1.044,0.972,-8.169,-4.099,-6.256,-2.914
1.547,0.991,-8.935,2.856,-4.760,2.370
1.547,0.991,-8.935,2.856,-4.760,2.370
1.307,1.839,-8.998,2.914,-13.425,1.341
-1.053,1.025,-9.117,-1.846,-4.566,-4.935
-1.413,1.101,-9.644,-2.778,8.937,-5.343
-0.790,1.092,-9.840,1.885,3.186,1.846
-0.790,1.092,-9.840,1.885,3.186,1.846
0.412,2.600,-8.543,-2.467,-14.086,10.297
1.188,3.189,-8.701,-2.623,-7.227,8.412
1.188,3.189,-8.701,-2.623,-7.227,8.412
0.891,2.916,-8.854,2.001,-13.017,4.080
-0.441,3.347,-8.303,1.457,-12.473,3.050
-1.106,3.836,-8.174,-1.826,-1.243,-0.971
-1.504,3.242,-8.188,-2.059,4.274,-2.448
-1.259,2.782,-8.385,0.311,4.274,0.194
-1.226,2.351,-8.911,3.769,2.759,4.352
-1.226,2.351,-8.911,3.769,2.759,4.352
0.019,1.911,-9.663,2.215,5.343,4.624
0.096,1.666,-9.419,-0.738,4.469,2.021
-0.134,1.432,-9.338,-2.273,5.440,0.175
-0.177,0.996,-9.132,-0.466,5.693,1.457
-0.172,0.723,-9.294,3.478,2.798,4.313
0.153,0.694,-9.682,3.750,2.992,4.702
0.484,0.536,-9.970,1.535,5.168,1.846
0.340,0.091,-9.869,0.000,4.255,-0.777
0.369,-0.172,-9.663,-0.622,4.061,-0.894
0.225,-0.273,-9.735,0.719,2.370,0.253
0.225,-0.192,-9.730,0.816,1.651,1.166
0.225,-0.192,-9.730,0.816,1.651,1.166
0.287,-0.201,-9.534,-0.544,0.758,0.272
0.402,-0.225,-9.433,-1.146,2.448,-0.797
0.335,-0.350,-9.323,-0.758,1.341,-0.894
0.383,-0.421,-9.237,-1.243,2.098,0.447
0.632,-0.283,-9.347,-0.835,1.982,2.001
0.575,-0.321,-9.429,-0.058,-0.699,2.293
0.680,-0.158,-9.089,-1.282,-0.661,1.360
0.503,-0.455,-8.945,-0.758,-0.525,0.952
0.627,-0.254,-9.227,0.155,1.438,1.399
0.651,-0.211,-9.036,-0.408,2.312,1.166
0.536,-0.168,-9.031,0.078,2.331,1.515
0.536,-0.168,-9.031,0.078,2.331,1.515
0.838,-0.177,-9.242,0.544,3.361,0.583
0.838,-0.177,-9.242,0.544,3.361,0.583
0.809,-0.263,-9.385,1.535,1.069,0.816
0.824,-0.057,-9.294,1.107,1.477,0.913
0.757,0.034,-9.199,0.563,2.273,-0.058
0.699,-0.053,-9.237,0.136,2.739,-0.680
0.785,0.024,-9.357,0.272,3.186,-0.680
0.690,-0.144,-9.476,1.321,1.457,-0.194
0.819,-0.062,-9.515,1.379,1.088,0.447
0.685,-0.086,-9.476,0.894,0.291,0.194
0.809,-0.010,-9.328,0.253,1.962,-0.019

-0.474,3.649,-8.887,25.879,2.739,6.917
-0.005,3.194,-9.764,31.241,5.731,5.207
0.086,2.447,-9.543,34.291,4.061,6.470
-0.421,1.489,-9.773,41.868,-0.039,10.588
-0.024,0.254,-10.377,46.531,3.808,12.356
-0.024,0.254,-10.377,46.531,3.808,12.356
1.580,-3.127,-11.397,53.273,8.354,10.744
2.571,-4.870,-11.100,54.030,9.947,8.276
2.571,-4.870,-11.100,54.030,9.947,8.276
1.724,-6.627,-7.820,50.747,6.081,14.649
1.915,-5.847,-6.048,42.587,5.731,19.428
2.653,-6.096,-4.453,41.305,8.063,17.874
3.031,-7.791,-4.037,46.725,10.414,11.132
2.399,-8.174,-3.788,45.501,11.191,2.487
1.403,-10.650,-1.944,41.790,9.559,-5.032
0.306,-12.100,-0.062,34.447,12.687,-6.373
0.115,-11.430,0.374,34.039,12.473,4.663
0.479,-10.616,0.939,30.697,3.361,18.943
0.479,-10.616,0.939,30.697,3.361,18.943
1.092,-8.825,0.857,20.983,1.671,13.211
1.092,-8.825,0.857,20.983,1.671,13.211
0.723,-11.828,2.236,25.917,0.583,-0.835
0.464,-13.743,2.030,25.801,0.855,-2.642
0.709,-13.111,0.819,19.079,-1.282,1.185
0.249,-13.839,0.623,10.258,-9.209,6.975
-0.192,-13.911,0.905,0.719,-13.036,6.897
-0.192,-13.911,0.905,0.719,-13.036,6.897
0.235,-13.580,1.528,-12.959,-12.434,2.778
-0.053,-13.968,1.025,-15.582,-12.356,0.563
-0.412,-13.312,0.895,-20.924,-13.503,-2.137
-0.752,-12.460,0.900,-25.335,-13.289,-3.011
-1.101,-11.789,0.694,-26.461,-10.006,-3.439
-0.694,-11.938,-1.106,-24.732,-10.161,0.699
-0.694,-11.938,-1.106,-24.732,-10.161,0.699
-0.311,-12.474,-3.333,-40.392,-18.787,1.632
-0.311,-12.474,-3.333,-40.392,-18.787,1.632
-0.110,-11.325,-3.275,-57.236,-3.322,-10.880
0.876,-9.874,-3.333,-56.614,-3.419,-5.615
0.345,-10.070,-3.271,-47.347,-14.280,2.584
0.326,-8.658,-3.711,-48.260,-13.950,2.448
0.742,-6.043,-5.215,-49.057,-6.003,-2.001
0.249,-5.018,-5.339,-42.354,-8.626,-5.731
-0.656,-6.570,-4.918,-30.250,-12.823,-7.752
-0.761,-7.211,-5.052,-26.034,-6.800,-8.335
-0.761,-7.211,-5.052,-26.034,-6.800,-8.335
0.172,-4.362,-7.188,-26.287,3.555,-3.497
1.370,-4.161,-7.312,-25.704,-2.875,0.097
1.130,-3.931,-7.384,-25.160,-9.986,0.155
1.130,-3.931,-7.384,-25.160,-9.986,0.155
-0.833,-4.554,-7.628,-21.449,-2.642,-9.811
0.172,-3.725,-7.935,-25.587,-1.477,-6.936
0.503,-3.582,-7.547,-30.405,-11.074,-0.952
0.503,-3.582,-7.547,-30.405,-11.074,-0.952
-1.092,-2.217,-7.906,-38.293,-7.150,-4.333
-1.978,-2.428,-8.054,-40.411,0.058,-9.054
-1.518,-1.264,-7.906,-43.597,2.370,-6.334
-0.594,0.469,-7.278,-39.925,-5.887,0.466
-1.211,1.307,-7.178,-29.395,-12.531,2.079
-1.863,0.872,-7.307,-21.974,-4.002,-2.914
-1.312,0.694,-7.384,-20.439,9.598,-6.198
-1.211,1.384,-7.681,-14.183,10.822,-2.565
-1.211,1.384,-7.681,-14.183,10.822,-2.565
-1.197,2.878,-9.194,-1.457,4.313,6.237
-1.240,2.840,-8.332,-6.606,3.050,2.059
-1.240,3.409,-7.202,-7.538,7.441,0.272
-1.240,3.409,-7.202,-7.538,7.441,0.272
-0.503,3.687,-9.476,6.819,13.483,6.178
-0.441,3.496,-9.692,5.809,8.937,3.789
-0.996,3.342,-9.457,0.058,6.120,1.632
-0.723,3.917,-9.294,-3.847,9.675,1.379
-1.197,3.055,-9.773,0.680,10.899,1.885
-1.044,2.605,-10.468,3.653,10.044,3.050
-1.044,2.605,-10.468,3.653,10.044,3.050
-0.819,1.935,-9.644,-1.651,0.155,4.294
-0.450,1.767,-9.160,-2.429,1.379,3.497
-0.450,1.767,-9.160,-2.429,1.379,3.497
-0.527,1.475,-9.242,1.243,4.702,2.992
-0.153,1.408,-9.558,2.973,4.682,4.488
0.057,1.121,-9.630,2.254,3.109,5.440
0.283,1.015,-9.529,1.185,2.506,5.090
0.503,0.570,-9.745,1.632,3.381,3.594
0.737,0.374,-9.950,2.098,5.362,2.001
0.800,0.091,-10.032,1.943,4.216,1.399
0.613,0.014,-9.807,0.661,1.302,2.370
0.642,0.230,-9.409,-1.224,1.146,2.623
-0.144,0.010,-9.357,-0.952,1.982,0.952
-0.148,-0.067,-9.500,-1.243,5.945,0.408
0.062,0.014,-9.539,-0.447,4.915,1.710
0.110,-0.101,-9.429,0.272,2.293,3.050
0.723,-0.081,-9.558,0.233,3.866,3.361
0.915,-0.263,-9.697,0.097,3.691,2.565
1.073,-0.211,-9.433,-0.991,3.245,1.923
1.173,-0.110,-9.208,-1.302,2.021,1.535
1.068,-0.096,-9.012,-0.563,1.360,1.399
0.934,-0.029,-8.950,0.466,2.059,0.991
0.934,-0.029,-8.950,0.466,2.059,0.991
0.895,-0.196,-9.132,1.127,1.554,0.427
0.862,-0.268,-9.290,1.127,0.816,0.253
0.857,-0.259,-9.390,1.030,1.477,0.000
0.781,-0.254,-9.515,0.991,1.710,-0.078
0.800,-0.220,-9.486,0.583,1.885,-0.078
0.785,-0.235,-9.414,0.699,1.302,-0.291
0.924,-0.172,-9.472,0.699,1.768,-0.563
0.948,-0.215,-9.452,0.641,1.787,-0.933
0.948,-0.215,-9.452,0.641,1.787,-0.933
0.685,-0.158,-9.304,0.155,0.563,-0.855
0.488,-0.283,-9.357,0.330,0.622,-0.758
0.824,-0.120,-9.486,0.408,3.167,-0.389
0.881,-0.148,-9.606,0.661,1.807,-0.233
0.862,-0.220,-9.491,0.291,0.117,-0.583
0.790,-0.244,-9.338,0.000,-0.291,-1.127
0.690,-0.345,-9.366,-0.058,1.088,-0.738
0.891,-0.187,-9.424,0.427,1.574,0.078
0.651,-0.206,-9.256,-0.175,-0.622,0.019
0.651,-0.206,-9.256,-0.175,-0.622,0.019
0.828,-0.220,-9.026,0.117,0.797,0.486
0.876,-0.235,-9.333,1.321,0.835,0.816
0.982,-0.206,-9.457,1.379,1.030,0.777
0.939,-0.225,-9.323,0.641,-0.214,0.699

0.053,-0.077,-9.783,3.089,-22.420,0.699
-0.081,-0.014,-9.754,2.778,-21.974,-0.855
-0.153,-0.115,-9.745,3.109,-25.898,-1.690
-0.330,-0.407,-9.567,4.080,-34.077,-2.079
-1.216,-0.766,-9.304,6.683,-44.238,-1.243
-1.216,-0.766,-9.304,6.683,-44.238,-1.243
-2.188,-0.891,-8.816,7.499,-46.492,0.486
-2.744,-0.962,-8.461,6.431,-46.045,0.350
-3.089,-0.895,-8.025,5.343,-43.578,0.291
-3.347,-0.776,-7.772,4.488,-41.344,0.155
-3.802,-0.852,-7.480,5.226,-40.994,0.194
-4.635,-1.082,-7.302,6.062,-40.256,0.175
-4.635,-1.082,-7.302,6.062,-40.256,0.175
-5.061,-0.900,-6.800,1.923,-25.976,-1.185
-5.061,-0.900,-6.800,1.923,-25.976,-1.185
-5.377,-1.154,-6.780,1.593,-19.254,-1.807
-5.028,-1.159,-6.814,0.952,-8.976,-2.837
-5.392,-1.322,-7.058,4.099,-13.386,-0.855
-5.392,-1.322,-7.058,4.099,-13.386,-0.855
-5.497,-1.360,-6.819,4.721,-14.668,1.282
-5.804,-1.283,-6.670,4.235,-12.337,2.370
-5.349,-0.986,-6.503,1.457,-0.291,-2.040
-5.258,-1.101,-6.618,5.615,-8.354,-2.215
-6.192,-1.647,-6.761,11.482,-24.557,0.602
-6.919,-1.662,-6.531,12.706,-33.689,4.430
-6.919,-1.662,-6.531,12.706,-33.689,4.430
-7.073,-1.451,-6.172,11.249,-35.943,6.217
-6.785,-0.857,-4.932,15.523,-58.985,8.257
-7.250,-1.121,-4.075,19.972,-76.606,8.063
-8.016,-1.413,-3.429,22.110,-90.556,7.111
-9.160,-1.973,-2.466,20.303,-100.445,9.753
-9.548,-1.757,-1.590,14.105,-99.454,12.512
-8.835,-1.446,-0.565,11.113,-99.376,13.328
-8.600,-0.781,0.378,14.824,-116.221,14.047
-8.600,-0.781,0.378,14.824,-116.221,14.047
-8.629,-1.001,3.821,11.774,-126.401,18.729
-7.595,-0.699,4.865,9.034,-119.990,21.158
-6.915,-0.134,6.005,5.071,-118.766,21.527
-6.469,-0.091,6.967,-0.389,-112.549,19.098
-5.761,-0.019,8.073,-8.704,-96.715,13.503
-5.023,-0.359,9.127,-12.726,-78.432,8.160
-5.023,-0.359,9.127,-12.726,-78.432,8.160
-4.214,-0.608,9.816,-9.947,-59.723,4.119
-3.984,-0.642,9.826,-10.083,-51.990,2.798
-3.984,-0.642,9.826,-10.083,-51.990,2.798
-2.629,-0.383,10.319,-12.318,-33.145,4.371
-2.476,-0.541,10.123,-7.189,-32.484,3.322
-2.332,-0.723,9.874,-5.945,-28.618,1.341
-2.289,-0.742,9.826,-6.878,-23.411,1.224
-1.997,-0.828,10.214,-6.081,-18.418,2.720
-1.757,-0.694,9.903,-1.885,-18.340,3.575
-1.508,-0.886,9.974,1.671,-18.418,3.458
-1.508,-0.886,9.974,1.671,-18.418,3.458
-1.542,-0.958,9.649,3.944,-19.545,2.642
-0.795,-0.632,9.826,-1.127,-16.980,2.798
-0.627,-0.536,9.898,-2.681,-16.067,3.614
-0.393,-0.460,10.348,-1.710,-14.707,5.401
-0.091,-0.359,10.391,0.155,-11.113,5.382
0.120,-0.474,10.185,1.787,-8.801,4.294
-0.034,-0.536,10.003,2.098,-8.238,2.293
-0.081,-0.680,10.017,-0.097,-7.189,1.807
-0.125,-0.498,10.247,-1.768,-5.285,1.671
-0.086,-0.532,10.305,-0.486,-2.487,1.885
0.091,-0.613,10.199,1.166,0.194,1.651
0.105,-0.517,9.936,1.885,0.272,0.330
-0.014,-0.512,9.922,1.515,-0.719,-0.175
-0.096,-0.594,10.051,0.583,0.194,-0.117
-0.038,-0.532,10.247,0.602,1.593,0.447
-0.081,-0.599,10.314,1.923,1.535,0.680
-0.081,-0.599,10.314,1.923,1.535,0.680
-0.110,-0.603,10.257,2.312,0.641,0.097
-0.091,-0.694,10.204,0.777,1.593,-0.427
-0.192,-0.603,10.329,-0.194,0.835,-0.253
-0.192,-0.603,10.329,-0.194,0.835,-0.253
-0.091,-0.570,10.396,0.816,0.797,0.758
-0.048,-0.579,10.319,0.602,1.302,0.408
-0.278,-0.570,10.334,0.155,0.797,-0.214
-0.287,-0.661,10.425,0.175,1.049,0.078
-0.287,-0.661,10.425,0.175,1.049,0.078
-0.239,-0.642,10.286,1.904,0.991,0.971
-0.239,-0.642,10.286,1.904,0.991,0.971
-0.029,-0.546,10.017,1.515,1.457,0.641
-0.014,-0.484,9.955,0.699,1.282,0.078
0.005,-0.455,10.166,-0.311,1.787,-0.155
0.005,-0.455,10.166,-0.311,1.787,-0.155
-0.148,-0.661,10.257,0.583,1.418,0.389
-0.239,-0.728,10.381,0.194,1.030,0.291
-0.177,-0.742,10.492,-0.214,1.593,0.369
-0.177,-0.742,10.492,-0.214,1.593,0.369
-0.244,-0.685,10.410,1.049,1.865,0.058
-0.244,-0.685,10.410,1.049,1.865,0.058
-0.201,-0.656,10.228,1.418,2.040,0.078
-0.139,-0.527,10.137,0.466,0.874,-0.136
-0.139,-0.527,10.137,0.466,0.874,-0.136
-0.354,-0.532,10.104,0.544,0.719,-0.117
-0.230,-0.623,10.180,0.894,0.855,0.097
-0.230,-0.623,10.180,0.894,0.855,0.097
-0.239,-0.589,10.266,-0.078,0.661,0.058
-0.302,-0.560,10.357,-0.253,0.466,-0.058
-0.302,-0.560,10.357,-0.253,0.466,-0.058
-0.172,-0.555,10.343,0.758,1.049,0.253
-0.172,-0.555,10.343,0.758,1.049,0.253
-0.311,-0.522,10.343,-0.019,1.341,0.136
-0.316,-0.436,10.415,0.311,1.030,-0.058
-0.407,-0.575,10.286,1.146,0.330,-0.155
-0.350,-0.536,10.286,1.224,0.544,0.136
-0.364,-0.575,10.300,0.816,0.738,0.233
-0.268,-0.541,10.199,0.058,0.952,0.272
-0.326,-0.565,10.266,0.369,0.117,0.214
-0.326,-0.565,10.266,0.369,0.117,0.214
-0.297,-0.589,10.415,0.894,0.058,0.758
-0.206,-0.484,10.281,0.622,0.874,0.661
-0.192,-0.460,10.209,0.330,1.088,0.486
-0.215,-0.407,10.276,0.602,0.602,0.369
-0.239,-0.546,10.281,1.069,-0.117,0.194
-0.268,-0.551,10.243,0.738,0.039,-0.078
-0.378,-0.560,10.209,0.525,0.544,-0.078
-0.316,-0.579,10.204,0.427,1.088,0.175
-0.302,-0.555,10.266,0.155,0.894,0.253

2.035,2.586,3.998,-20.536,-12.764,-12.143
3.098,-0.943,3.912,-23.236,-14.727,-17.214
4.353,-5.128,4.161,-22.790,-19.079,-19.700
4.980,-9.251,4.741,-26.403,-17.039,-21.430
4.980,-9.251,4.741,-26.403,-17.039,-21.430
5.191,-11.837,5.401,-29.512,-13.347,-21.235
4.578,-14.600,6.905,-34.699,-4.313,-28.268
3.275,-15.026,7.695,-36.351,-1.496,-32.543
2.667,-13.877,7.920,-36.545,-2.759,-35.068
2.279,-14.203,8.591,-34.621,-5.673,-35.923
2.236,-13.690,9.395,-27.802,-12.084,-29.453
2.021,-12.575,10.990,-24.072,-13.483,-19.292
2.184,-11.660,11.971,-19.059,-2.934,-11.424
2.184,-11.660,11.971,-19.059,-2.934,-11.424
3.419,-10.353,11.210,-4.041,9.947,-5.654
4.008,-10.176,10.544,1.379,11.230,-1.069
4.008,-10.176,10.544,1.379,11.230,-1.069
4.932,-8.988,11.286,2.856,4.643,6.625
4.985,-8.356,11.344,3.070,2.176,8.102
4.985,-8.356,11.344,3.070,2.176,8.102
4.104,-8.658,12.014,9.131,-9.345,7.169
4.065,-8.409,12.369,10.414,-11.016,10.200
4.013,-8.145,11.928,13.619,-6.917,11.871
4.013,-8.145,11.928,13.619,-6.917,11.871
3.371,-8.155,9.936,19.836,-5.712,12.881
2.935,-8.116,9.309,20.147,-6.781,13.211
2.935,-8.116,9.309,20.147,-6.781,13.211
2.801,-6.148,9.021,18.204,4.410,16.883
2.653,-5.631,8.188,17.991,8.471,16.145
2.380,-5.430,7.839,17.738,5.343,14.202
2.380,-4.927,8.236,16.534,1.360,15.057
2.380,-4.927,8.236,16.534,1.360,15.057
1.815,-3.160,7.834,14.086,7.713,14.882
1.958,-2.528,7.336,12.687,11.657,11.443
1.915,-2.049,7.489,13.075,5.518,9.734
1.197,-1.662,7.963,13.211,-5.265,9.423
0.713,-1.460,8.308,11.307,-4.935,9.364
1.044,-1.264,8.586,9.559,-0.855,11.230
1.551,-0.828,8.753,7.402,0.661,12.395
1.542,-0.259,9.002,6.353,-1.438,10.394
0.852,-0.570,8.954,8.587,-4.469,6.703
0.852,-0.570,8.954,8.587,-4.469,6.703
1.058,-0.340,9.299,6.819,-2.798,7.927
1.058,-0.340,9.299,6.819,-2.798,7.927
0.843,0.201,9.261,3.147,5.770,5.246
0.843,0.201,9.261,3.147,5.770,5.246
0.948,0.000,9.031,7.791,-3.225,5.421
0.948,0.000,9.031,7.791,-3.225,5.421
1.341,0.019,9.917,2.118,1.185,7.888
1.566,0.417,10.099,1.457,4.158,7.169
1.513,0.335,9.807,4.779,3.536,5.459
1.144,0.685,9.280,7.091,2.701,3.905
1.044,0.766,9.208,6.101,3.730,4.371
1.379,1.781,9.491,4.313,3.439,6.120
1.820,1.853,9.366,5.401,2.778,7.033
1.738,2.002,9.156,5.207,1.593,4.760
1.532,2.179,9.419,2.526,2.040,2.953
1.647,2.389,9.701,-0.039,4.333,2.565
1.820,2.332,9.716,-1.535,5.071,2.565
1.896,2.241,10.147,-2.331,3.983,2.040
1.810,1.958,10.477,-1.127,2.584,2.157
1.786,1.709,10.583,0.738,2.254,2.079
1.748,1.523,10.262,0.369,2.370,0.311
1.513,1.298,10.453,-1.574,1.768,-1.379
1.293,1.164,10.559,-1.923,1.321,-1.729
1.264,0.814,10.626,-0.816,1.146,-1.146
1.264,0.814,10.626,-0.816,1.146,-1.146
1.307,0.225,10.674,-0.797,2.351,-0.175
1.298,0.029,10.511,-0.583,3.419,-0.933
1.087,-0.278,10.338,-0.602,2.875,-1.613
0.982,-0.623,10.712,-1.923,1.962,-1.593
0.857,-0.915,10.860,-1.846,0.661,-1.535
0.699,-1.058,10.942,-0.525,-1.127,-0.913
0.690,-1.183,10.913,1.030,-1.166,0.117
0.934,-1.068,10.712,1.865,0.039,0.466
0.934,-1.068,10.712,1.865,0.039,0.466
1.226,-0.881,10.468,0.952,-0.874,0.078
1.140,-0.934,10.386,1.088,-1.224,-0.291
0.967,-1.030,10.233,1.438,-1.069,0.369
1.020,-1.025,10.238,1.205,-0.097,0.952
1.020,-1.025,10.238,1.205,-0.097,0.952
1.250,-0.843,10.152,-0.544,1.127,0.699
1.250,-0.843,10.152,-0.544,1.127,0.699
1.274,-0.804,10.008,0.505,0.175,0.894
1.274,-0.804,10.008,0.505,0.175,0.894
1.379,-0.776,10.247,-0.933,0.641,0.136
1.197,-0.852,10.166,-1.069,1.030,-0.311
1.197,-0.852,10.166,-1.069,1.030,-0.311
1.073,-1.044,10.319,-0.466,0.777,-0.330
0.991,-1.149,10.353,-0.175,0.214,-0.155
0.967,-1.116,10.472,-0.117,0.874,0.233
0.967,-1.116,10.472,-0.117,0.874,0.233
1.101,-1.144,10.429,0.486,0.117,0.369
1.015,-1.231,10.434,0.816,-0.291,0.117
0.977,-1.178,10.439,0.563,0.427,0.408
0.977,-1.178,10.439,0.563,0.427,0.408
1.188,-1.030,10.314,0.175,1.282,0.622
1.188,-1.030,10.314,0.175,1.282,0.622
1.063,-1.240,10.199,0.544,0.253,0.486
1.130,-1.192,10.396,0.078,0.000,0.427
1.130,-1.192,10.396,0.078,0.000,0.427
1.039,-1.211,10.357,0.602,-0.253,0.563
1.235,-1.039,10.314,0.136,0.525,1.224
1.116,-1.039,10.209,1.010,-0.291,0.699
1.178,-1.068,10.171,0.505,0.350,0.505
1.039,-1.154,10.243,0.194,-0.019,0.408
1.039,-1.154,10.243,0.194,-0.019,0.408
1.135,-1.082,10.247,0.544,0.330,0.486
1.087,-1.154,10.214,0.913,0.602,0.719
1.092,-1.106,10.290,0.894,0.874,0.563
1.001,-1.221,10.214,0.971,1.341,0.214
0.986,-1.168,10.132,0.699,1.107,0.311
0.986,-1.168,10.132,0.699,1.107,0.311
1.092,-1.053,10.037,0.466,0.622,0.019
1.077,-0.991,9.965,-0.097,0.622,-0.136
1.034,-0.996,10.223,-0.272,0.952,0.214
1.025,-1.053,10.314,0.311,0.991,0.291
0.972,-1.111,10.180,0.214,1.302,-0.039
0.972,-1.111,10.180,0.214,1.302,-0.039

2.480,2.207,5.215,-14.979,-3.769,-12.939
2.624,0.330,5.076,-20.089,1.088,-17.408
2.624,0.330,5.076,-20.089,1.088,-17.408
2.447,-2.567,4.257,-22.187,-0.058,-27.841
2.705,-4.463,4.152,-20.322,-3.458,-28.035
2.519,-7.360,5.014,-19.331,-4.857,-23.547
3.443,-9.922,5.856,-23.722,-3.672,-21.158
4.003,-13.255,7.451,-28.637,-4.255,-22.770
4.314,-16.477,9.041,-25.665,-11.754,-21.915
4.089,-19.235,10.286,-23.625,-16.436,-24.616
1.446,-20.078,12.397,-28.812,-13.736,-31.882
1.446,-20.078,12.397,-28.812,-13.736,-31.882
-2.413,-16.530,13.245,-18.418,9.772,-31.863
0.235,-12.814,11.473,-7.091,23.819,-9.520
6.005,-10.032,8.873,6.858,27.860,9.908
6.005,-10.032,8.873,6.858,27.860,9.908
6.172,-7.978,8.495,6.373,-3.419,4.391
4.678,-8.246,10.448,1.010,-5.032,0.583
3.883,-8.342,10.985,1.574,-1.438,-0.602
3.113,-8.447,10.075,5.498,-3.594,0.039
2.911,-8.389,10.032,4.818,-8.510,2.487
2.576,-8.227,10.731,1.477,-9.734,4.197
2.078,-7.891,11.104,-0.194,-6.373,3.594
2.078,-7.891,11.104,-0.194,-6.373,3.594
3.199,-8.246,10.353,7.033,-0.330,7.402
2.241,-7.796,9.012,7.830,10.258,4.507
1.561,-7.489,7.494,7.674,18.651,0.505
1.580,-7.523,7.523,6.547,11.968,0.583
1.274,-8.140,8.796,6.295,-8.218,4.119
0.939,-8.054,9.505,10.569,-14.649,9.947
1.777,-7.278,9.385,13.017,0.563,12.376
3.395,-6.512,9.419,13.017,12.570,11.404
3.242,-6.953,8.715,13.755,10.239,6.314
3.242,-6.953,8.715,13.755,10.239,6.314
1.963,-7.231,7.192,13.192,10.336,0.913
1.748,-5.976,7.456,12.745,12.862,5.537
2.428,-5.272,8.073,14.124,8.820,10.394
2.351,-4.683,8.346,15.329,3.089,8.199
1.800,-3.974,9.041,14.338,1.632,6.470
1.800,-3.974,9.041,14.338,1.632,6.470
1.255,-2.418,9.610,10.763,7.694,6.528
1.010,-1.121,8.734,10.763,8.354,9.190
1.010,-1.121,8.734,10.763,8.354,9.190
0.742,0.187,8.677,10.608,5.265,10.491
0.795,1.427,9.879,9.811,-2.079,12.687
0.646,3.290,10.137,8.121,1.205,12.007
0.378,4.166,9.883,6.722,2.040,9.326
0.378,4.166,9.883,6.722,2.040,9.326
-0.096,4.324,9.361,9.889,-2.448,4.663
0.278,4.233,8.385,11.288,0.466,5.226
0.412,4.832,8.102,9.170,0.408,6.936
0.824,5.349,8.605,4.915,-2.195,7.694
1.494,5.037,9.419,1.243,-2.973,5.809
1.494,5.037,9.419,1.243,-2.973,5.809
1.049,3.711,10.171,-0.699,-3.283,1.768
1.532,3.026,10.080,0.330,-1.360,2.914
1.786,2.241,10.113,2.409,-2.623,3.225
1.786,2.241,10.113,2.409,-2.623,3.225
1.772,1.714,10.003,3.847,-2.487,2.079
1.346,1.465,10.051,2.545,-2.040,-0.175
1.015,1.058,10.367,1.651,-2.837,-1.710
0.541,0.690,10.712,2.603,-3.711,-0.991
0.723,0.441,10.568,4.857,-2.429,1.243
1.044,0.101,10.276,6.703,-1.263,2.875
1.068,-0.273,10.152,5.149,-1.593,2.370
1.068,-0.273,10.152,5.149,-1.593,2.370
0.943,-0.311,10.357,1.632,-1.418,1.243
1.010,-0.642,10.458,-0.272,0.233,2.273
1.283,-0.541,10.381,-0.272,1.826,2.875
1.317,-0.627,10.310,0.971,0.389,2.584
1.231,-0.718,10.171,2.098,-1.515,1.943
1.125,-0.723,10.123,1.982,-2.118,1.807
1.240,-0.642,10.003,0.350,-0.544,2.351
1.460,-0.627,9.912,-1.088,0.699,2.817
1.384,-0.608,10.008,-1.865,0.039,2.642
1.417,-0.876,10.190,-2.409,0.272,2.584
1.417,-0.876,10.190,-2.409,0.272,2.584
1.178,-1.111,10.544,-1.205,-0.117,0.641
1.025,-1.379,10.334,0.175,-0.505,0.136
1.044,-1.350,10.257,0.000,-0.680,0.389
1.283,-1.279,10.415,-1.554,0.253,1.049
1.374,-1.097,10.563,-2.215,0.913,1.185
1.331,-1.149,10.420,-1.457,1.010,1.302
1.317,-1.125,10.228,-0.194,1.224,1.049
1.255,-1.250,9.998,0.253,0.486,0.544
1.197,-1.255,10.051,-0.952,0.175,0.233
1.154,-1.188,10.290,-2.448,0.544,0.408
1.231,-1.211,10.472,-1.807,1.049,0.466
1.183,-1.393,10.410,0.350,0.291,-0.136
1.183,-1.393,10.410,0.350,0.291,-0.136
1.274,-1.250,10.305,-0.622,1.107,0.253
1.317,-1.053,10.266,-0.758,0.991,0.661
1.317,-1.053,10.266,-0.758,0.991,0.661
1.346,-0.967,10.190,-0.214,1.243,0.641
1.374,-1.149,10.214,0.175,0.214,-0.583
1.211,-1.221,10.401,-0.330,-0.272,-0.933
1.106,-1.235,10.506,-0.719,0.214,-0.680
1.121,-1.231,10.506,-0.117,0.563,0.078
1.121,-1.231,10.506,-0.117,0.563,0.078
1.240,-1.279,10.190,2.021,0.350,-0.214
1.140,-1.240,10.142,1.846,-0.039,-0.505
1.173,-1.125,9.994,1.010,1.166,0.039
1.360,-1.053,9.927,0.505,1.632,0.369
1.360,-1.053,9.927,0.505,1.632,0.369
1.264,-0.943,10.037,0.505,0.719,0.350
1.264,-0.943,10.037,0.505,0.719,0.350
1.432,-0.828,10.199,0.175,1.146,0.408
1.365,-0.948,10.128,-0.117,1.069,-0.117
1.188,-1.068,10.329,-0.563,0.933,-0.661
1.092,-1.183,10.343,0.311,0.913,-0.291
1.144,-1.178,10.338,0.622,1.438,0.447
1.202,-1.140,10.238,0.233,1.865,0.777
1.274,-1.101,10.238,0.233,1.477,0.699
1.168,-1.087,10.171,0.486,1.166,0.427
1.168,-1.049,10.228,0.758,0.855,0.427
1.235,-1.073,10.271,0.816,1.477,0.933
1.341,-1.010,10.300,0.661,2.059,0.971
1.279,-1.063,10.137,0.525,1.671,0.505
1.188,-1.049,10.152,-0.058,1.341,-0.058

-0.235,4.501,8.677,-8.918,26.403,-3.283
-0.235,4.501,8.677,-8.918,26.403,-3.283
-1.494,5.004,10.401,-8.879,19.215,-2.701
-1.389,5.363,10.659,-7.810,20.633,-1.574
-1.226,5.516,10.846,-9.073,22.887,-1.049
-0.943,5.837,10.745,-11.968,26.131,-2.137
-1.087,5.655,10.472,-12.356,27.239,-5.110
-2.284,4.674,9.979,-13.755,32.173,-8.471
-2.284,4.674,9.979,-13.755,32.173,-8.471
-1.551,4.530,8.921,-22.654,48.707,-11.366
-1.528,3.333,8.332,-9.695,35.146,-15.873
-1.528,3.333,8.332,-9.695,35.146,-15.873
-2.078,0.752,7.872,-5.421,32.232,-19.526
-1.149,-3.347,7.858,-32.737,59.548,-27.452
-1.671,-4.367,8.021,-25.218,51.408,-30.347
-1.671,-4.367,8.021,-25.218,51.408,-30.347
-0.953,-5.373,7.111,-6.606,41.693,-25.335
1.949,-9.888,3.888,0.427,45.132,-21.818
0.570,-12.977,3.855,-14.144,48.357,-29.628
-0.163,-14.533,4.444,-25.626,61.335,-33.436
-0.163,-14.533,4.444,-25.626,61.335,-33.436
-3.529,-15.845,3.812,-6.975,50.708,-25.160
-3.242,-14.452,4.056,-6.858,51.757,-18.554
-2.945,-14.188,4.372,-6.411,38.332,-16.262
-4.065,-16.697,5.124,2.642,12.706,-16.223
-6.804,-17.818,5.109,12.104,-14.610,-16.359
-6.804,-17.818,5.109,12.104,-14.610,-16.359
-4.559,-15.443,5.325,-1.982,11.987,3.963
-4.559,-15.443,5.325,-1.982,11.987,3.963
-2.241,-11.914,4.860,-2.798,2.759,9.734
-3.242,-12.211,4.243,0.369,-5.187,4.041
-4.257,-13.135,5.272,-2.312,-10.705,2.331
-4.257,-13.135,5.272,-2.312,-10.705,2.331
-4.951,-13.029,7.049,-2.856,-19.700,16.708
-4.223,-11.751,6.359,-2.953,-9.772,17.758
-4.223,-11.751,6.359,-2.953,-9.772,17.758
-3.591,-10.176,4.812,1.107,-12.026,15.174
-4.070,-9.649,4.458,4.702,-24.402,15.523
-5.152,-8.954,4.721,4.255,-35.826,18.593
-4.640,-8.452,5.071,1.768,-35.807,21.391
-3.745,-6.603,4.903,3.905,-39.712,22.692
-3.649,-6.464,6.225,10.491,-59.315,22.304
-4.731,-6.072,7.216,11.812,-67.067,22.459
-3.974,-5.195,7.025,6.975,-48.590,22.051
-3.103,-3.759,6.737,3.458,-34.427,20.944
-2.849,-3.170,7.571,4.643,-36.389,20.303
-3.026,-2.672,8.217,6.237,-37.827,18.826
-2.993,-2.054,7.245,8.043,-29.667,14.999
-2.792,-1.714,6.575,8.121,-25.743,12.745
-2.964,-1.800,7.599,6.237,-29.570,12.220
-3.180,-1.518,8.112,6.120,-31.047,10.899
-3.180,-1.518,8.112,6.120,-31.047,10.899
-2.725,-1.307,7.211,11.715,-29.007,11.987
-2.270,-1.006,7.422,8.179,-27.821,12.259
-1.422,-0.445,8.093,5.226,-26.850,11.735
-1.743,-0.431,8.567,6.664,-26.967,8.432
-1.738,-0.488,8.959,9.364,-26.034,6.819
-1.738,-0.488,8.959,9.364,-26.034,6.819
-1.274,-0.158,9.132,11.987,-26.151,7.577
-0.666,0.297,9.352,10.355,-21.838,6.955
-0.263,0.287,9.414,10.025,-19.312,4.197
-0.407,0.283,9.419,11.521,-21.119,2.118
-0.541,0.436,9.630,12.939,-22.440,3.031
-0.005,0.278,9.701,10.355,-16.242,4.566
-0.005,0.278,9.701,10.355,-16.242,4.566
0.704,0.986,10.381,4.799,-10.627,1.982
0.393,0.637,10.793,6.314,-14.066,-0.505
0.120,0.340,10.764,6.003,-11.540,-0.894
0.120,0.340,10.764,6.003,-11.540,-0.894
0.603,0.316,10.487,3.342,-4.099,0.486
1.346,0.335,10.769,1.341,-1.341,0.661
1.010,0.144,11.626,2.701,-8.451,-3.711
0.340,0.048,11.416,4.838,-6.547,-3.497
0.302,0.187,10.798,4.197,-0.214,-2.293
0.464,0.417,9.979,3.594,2.934,-1.749
0.747,0.565,9.893,4.779,-0.330,-1.438
0.623,0.603,10.137,6.839,-4.274,-2.215
0.546,0.311,10.166,6.761,-3.381,-2.234
0.493,0.038,9.931,4.099,1.146,-1.690
0.551,0.000,9.859,1.438,3.555,-1.554
0.455,-0.326,9.946,1.574,1.749,-1.787
0.196,-0.661,10.089,3.633,-0.797,-1.729
0.196,-0.661,10.089,3.633,-0.797,-1.729
0.383,-0.733,9.970,2.953,1.710,0.369
0.426,-0.685,10.176,1.787,1.826,0.874
0.570,-0.800,10.319,1.613,0.389,0.952
0.694,-0.824,10.444,0.855,0.039,0.699
0.694,-0.824,10.444,0.855,0.039,0.699
0.723,-1.111,10.372,0.602,0.583,-0.253
0.584,-1.245,10.290,-0.117,2.079,-0.194
0.857,-1.322,10.199,-0.602,3.419,0.214
0.656,-1.475,10.128,0.525,1.224,-0.641
0.503,-1.547,10.065,1.030,0.058,-0.816
0.623,-1.551,9.989,0.291,0.699,-0.486
0.484,-1.551,10.104,-0.563,0.855,-0.233
0.445,-1.604,10.329,-0.544,0.097,0.214
0.460,-1.556,10.515,-0.758,0.369,0.058
0.579,-1.446,10.439,-0.311,0.719,0.058
0.579,-1.446,10.439,-0.311,0.719,0.058
0.546,-1.623,10.276,-0.330,1.224,-0.447
0.594,-1.465,10.219,-0.272,1.166,-0.039
0.646,-1.279,10.085,0.544,0.894,0.408
0.646,-1.279,10.085,0.544,0.894,0.408
0.680,-1.202,9.874,0.622,0.797,0.447
0.584,-1.374,10.080,-1.127,0.719,0.019
0.584,-1.360,10.214,-1.282,0.991,-0.291
0.584,-1.360,10.214,-1.282,0.991,-0.291
0.584,-1.408,10.195,-0.136,0.466,-0.350
0.584,-1.379,10.214,-0.019,0.855,-0.097
0.579,-1.499,10.190,-0.466,1.438,-0.175
0.493,-1.537,10.334,-0.835,1.321,-0.486
0.431,-1.623,10.386,-0.583,1.263,-0.563
0.460,-1.575,10.434,-0.272,1.593,-0.019
0.460,-1.575,10.434,-0.272,1.593,-0.019
0.589,-1.355,10.046,0.233,1.807,0.719
0.642,-1.279,10.108,0.058,1.107,0.661
0.666,-1.216,10.013,0.797,0.525,0.155
0.666,-1.216,10.013,0.797,0.525,0.155
0.599,-1.231,10.219,-0.913,1.224,-0.097

0.833,4.851,9.400,5.634,-21.624,-5.459
0.833,4.851,9.400,5.634,-21.624,-5.459
1.513,4.765,8.547,-0.563,-28.365,-5.673
1.891,4.535,8.461,-4.818,-33.941,-5.129
1.891,4.535,8.461,-4.818,-33.941,-5.129
3.294,4.204,8.356,-9.675,-40.158,-1.515
4.152,3.893,7.532,-13.386,-38.080,-2.914
4.506,3.165,6.589,-15.348,-42.937,-5.712
4.669,2.428,6.479,-19.681,-47.522,-7.927
4.836,1.753,6.364,-24.247,-47.114,-8.626
5.042,0.455,6.273,-20.750,-48.532,-8.607
5.459,-0.742,6.005,-13.775,-53.739,-9.054
6.024,-2.140,4.966,-6.878,-57.042,-10.336
6.747,-3.869,4.985,-1.865,-66.406,-9.675
7.958,-4.961,5.521,0.389,-72.040,-7.849
7.958,-4.961,5.521,0.389,-72.040,-7.849
9.725,-6.503,5.583,3.109,-68.738,-7.674
10.635,-10.669,4.592,17.777,-91.177,-15.640
11.219,-9.323,5.344,13.580,-102.504,-8.723
13.800,-9.007,4.717,16.592,-90.167,-5.343
15.826,-8.605,3.385,23.936,-88.574,-7.752
16.803,-7.590,4.018,19.642,-94.131,-8.859
16.803,-7.590,4.018,19.642,-94.131,-8.859
12.790,-7.341,4.166,-6.178,-41.596,-26.345
12.225,-7.379,2.236,-3.555,-18.884,-25.820
12.287,-7.930,0.761,4.974,-18.729,-18.671
12.440,-7.997,-0.594,3.730,-12.356,-13.134
14.002,-6.613,-0.302,-5.013,2.487,-6.839
14.820,-5.310,-0.235,-9.520,14.727,-4.838
14.025,-5.942,0.125,-7.499,19.195,-6.042
13.456,-6.402,0.369,-3.750,19.934,-4.352
14.183,-6.220,-1.149,-0.622,30.386,-0.874
14.183,-6.220,-1.149,-0.622,30.386,-0.874
13.796,-5.842,-2.658,-6.878,34.893,-3.070
13.393,-4.750,-1.733,-12.123,29.842,-3.944
12.551,-4.927,0.388,-18.224,34.155,-4.197
11.186,-4.678,2.404,-25.509,43.656,-4.585
9.567,-5.861,2.902,-25.160,56.789,-2.390
9.567,-5.861,2.902,-25.160,56.789,-2.390
10.554,-3.644,1.240,-24.519,79.598,10.355
10.554,-3.644,1.240,-24.519,79.598,10.355
8.686,-3.409,5.176,-32.387,69.748,10.142
6.824,-3.520,6.397,-28.696,69.942,5.654
5.349,-4.123,6.321,-22.770,76.140,5.032
6.115,-2.931,6.292,-16.300,76.781,10.316
6.321,-2.495,6.196,-5.304,64.910,11.890
5.847,-2.121,6.531,-3.167,60.597,8.918
4.870,-1.805,7.068,-6.781,58.343,6.295
3.414,-1.417,7.044,-8.471,59.742,5.887
3.002,-0.766,6.618,-7.597,60.111,8.956
3.002,-0.766,6.618,-7.597,60.111,8.956
2.342,-0.776,7.451,1.943,34.349,10.724
2.801,-0.306,8.811,-3.555,33.961,11.385
2.801,-0.306,8.811,-3.555,33.961,11.385
1.973,-0.326,10.247,-4.779,28.832,10.142
2.246,-0.670,9.606,2.312,21.896,9.326
1.623,-0.776,9.582,6.703,13.580,5.440
1.235,-1.015,10.156,3.769,9.656,6.800
1.235,-1.015,10.156,3.769,9.656,6.800
1.580,-0.364,10.726,-0.913,13.852,11.132
1.202,0.474,9.711,6.431,13.619,9.889
0.378,1.168,10.089,6.042,8.995,8.393
0.378,1.168,10.089,6.042,8.995,8.393
0.718,2.375,10.410,2.992,11.443,12.259
0.833,2.504,10.539,2.992,11.521,12.609
0.532,2.935,10.669,4.041,9.617,9.908
0.532,2.935,10.669,4.041,9.617,9.908
1.082,3.141,10.688,5.848,8.840,5.654
1.034,3.093,10.487,5.731,7.985,4.080
0.603,2.629,10.310,5.168,6.897,2.701
0.623,2.011,10.152,4.818,6.547,1.651
0.623,2.011,10.152,4.818,6.547,1.651
0.057,0.321,9.941,7.674,2.273,-1.496
-0.077,-0.244,10.070,5.090,2.545,-1.496
-0.077,-0.575,10.353,1.904,3.633,-0.991
-0.168,-0.919,10.525,1.904,2.409,-0.952
-0.297,-1.279,10.444,3.186,0.622,-1.127
-0.359,-1.513,10.410,3.128,-0.758,-0.427
-0.129,-1.623,10.640,1.826,-1.166,1.263
0.206,-1.571,10.769,1.418,-0.835,2.021
0.330,-1.599,10.544,2.565,-1.651,2.254
0.330,-1.599,10.544,2.565,-1.651,2.254
0.455,-1.379,10.295,2.953,-1.768,2.137
0.512,-1.393,10.195,0.913,-0.835,2.215
0.517,-1.417,10.166,0.486,-0.194,2.331
0.766,-1.460,10.017,0.389,0.583,2.448
0.713,-1.326,9.831,0.758,-0.039,0.971
0.685,-1.437,9.773,0.408,-0.661,0.933
0.694,-1.580,9.984,-1.379,0.350,1.438
0.785,-1.499,10.367,-1.457,0.408,1.379
0.570,-1.417,9.907,0.019,0.253,1.418
0.623,-1.523,9.936,-0.175,0.797,1.768
0.627,-1.528,10.056,-0.214,1.302,0.719
0.627,-1.528,10.056,-0.214,1.302,0.719
0.407,-1.915,10.247,-0.466,0.661,0.971
0.508,-1.824,10.238,-0.466,0.835,1.088
0.579,-1.786,10.132,0.369,0.117,1.185
0.517,-1.733,10.204,-0.194,0.952,1.632
0.642,-1.676,10.123,-0.894,1.885,2.195
0.838,-1.585,10.247,-1.030,1.904,1.826
0.757,-1.456,10.113,-0.680,0.797,1.010
0.872,-1.561,10.171,-1.690,1.069,0.835
0.843,-1.413,10.429,-1.263,1.146,0.000
0.570,-1.599,10.348,1.107,0.291,-0.641
0.541,-1.652,10.252,1.088,0.544,-0.622
0.517,-1.686,10.295,0.117,0.447,-1.107
0.239,-1.853,10.329,0.136,-0.097,-1.302
0.321,-1.939,10.233,-0.408,0.874,-0.291
0.441,-1.863,10.348,-0.291,0.913,-0.019
0.441,-1.863,10.348,-0.291,0.913,-0.019
0.651,-1.829,10.334,1.457,0.505,0.505
0.680,-1.647,10.085,2.312,0.466,0.738
0.709,-1.465,9.869,1.826,0.933,0.408
0.608,-1.417,9.826,0.427,1.302,0.019
0.675,-1.470,9.998,-0.952,2.118,0.117
0.637,-1.580,10.065,-0.680,1.515,-0.272
0.637,-1.580,10.065,-0.680,1.515,-0.272
0.517,-1.791,10.089,0.758,0.427,-0.563
0.508,-1.719,9.989,0.155,1.088,-0.602

-1.848,3.275,12.929,-29.939,5.207,5.518
-1.413,3.452,12.014,-27.724,2.448,6.353
-1.413,3.452,12.014,-27.724,2.448,6.353
-0.776,3.462,10.721,-24.635,-7.286,-0.039
0.091,2.897,8.859,-30.755,-9.170,-3.536
-0.512,1.791,8.811,-40.411,-14.494,-6.567
-0.728,-0.283,8.749,-43.209,-16.028,-1.651
0.508,-1.015,6.790,-45.113,-14.727,0.661
1.614,-2.006,5.454,-50.300,-18.826,-2.759
2.179,-2.715,4.209,-59.742,-19.700,-9.617
2.164,-4.243,3.342,-67.261,-15.970,-14.163
2.380,-6.579,1.647,-70.564,-14.727,-15.310
2.701,-7.997,0.493,-75.460,-12.084,-15.271
3.352,-9.270,-0.517,-76.548,-7.538,-15.659
3.821,-10.482,-1.901,-72.351,-1.632,-15.368
3.678,-11.583,-3.927,-67.397,6.839,-13.308
3.309,-11.057,-4.506,-65.435,13.464,-12.687
3.491,-11.923,-3.812,-56.303,15.038,-8.743
5.334,-13.494,-3.860,-41.693,20.788,-8.529
5.334,-13.494,-3.860,-41.693,20.788,-8.529
5.914,-16.161,-3.247,-4.119,5.945,-22.207
5.914,-16.161,-3.247,-4.119,5.945,-22.207
5.143,-16.803,-3.941,9.675,3.478,-22.906
3.759,-16.348,-3.721,13.716,8.665,-2.953
5.133,-15.768,-2.691,8.315,14.824,11.657
5.133,-15.768,-2.691,8.315,14.824,11.657
7.197,-14.945,-0.412,8.063,7.616,13.678
6.124,-14.964,-1.049,18.690,-6.353,4.333
5.195,-15.237,-1.599,26.481,-17.136,-0.661
4.765,-14.983,-1.255,29.395,-22.673,2.021
5.128,-14.480,-0.493,28.676,-19.176,10.044
5.497,-13.384,0.555,25.704,-11.016,17.894
5.119,-12.206,0.742,25.354,-4.216,20.283
4.472,-10.511,-0.263,26.209,-0.039,19.254
4.166,-9.654,-0.895,28.657,-1.088,16.553
3.697,-9.098,-0.541,28.832,-6.975,12.084
2.729,-8.720,0.986,24.616,-12.706,8.898
2.729,-8.720,0.986,24.616,-12.706,8.898
1.623,-7.786,2.423,25.276,-9.248,7.266
1.623,-7.786,2.423,25.276,-9.248,7.266
2.136,-7.274,3.496,30.852,-0.214,7.150
2.136,-7.274,3.496,30.852,-0.214,7.150
1.106,-6.235,4.851,39.109,8.995,7.946
1.106,-6.235,4.851,39.109,8.995,7.946
1.872,-5.028,6.239,37.458,17.097,10.627
1.121,-4.386,7.168,38.954,14.241,9.092
0.962,-3.946,6.651,39.304,16.708,7.558
0.929,-3.309,7.288,32.193,15.135,6.742
0.168,-2.729,8.796,26.384,9.462,5.479
-0.374,-2.174,9.156,26.209,8.218,3.808
-0.239,-1.748,9.548,27.005,8.743,2.059
-0.239,-1.748,9.548,27.005,8.743,2.059
-0.158,-1.781,9.783,27.277,4.294,1.710
-0.302,-1.374,9.711,21.041,4.935,0.758
-0.254,-1.049,9.749,15.232,4.255,-0.505
-0.335,-0.862,10.597,14.494,0.389,0.389
-0.187,-0.795,10.697,16.534,-0.544,0.117
-0.029,-0.986,10.219,16.495,0.758,-0.253
-0.029,-0.986,10.219,16.495,0.758,-0.253
-0.177,-1.269,10.228,8.063,-0.835,-0.214
-0.335,-1.140,10.664,7.597,-3.866,0.253
-0.014,-1.101,10.693,8.179,-2.487,1.166
0.402,-1.231,10.712,8.257,-0.272,1.923
0.599,-1.312,10.448,8.451,0.272,0.253
0.704,-1.551,10.238,7.907,-2.001,-1.088
0.594,-1.657,10.405,6.509,-3.128,-1.943
0.469,-1.604,10.731,6.178,-2.273,-1.263
0.527,-1.709,10.654,6.547,0.602,0.058
0.924,-1.614,10.209,7.325,3.575,0.369
0.972,-1.709,10.017,7.810,1.885,-0.738
0.804,-1.868,10.195,7.014,-1.069,-1.923
0.632,-1.642,10.448,4.682,-0.758,-1.613
0.728,-1.417,10.477,3.070,2.448,-0.155
0.728,-1.417,10.477,3.070,2.448,-0.155
0.656,-1.350,9.931,3.886,3.497,-0.408
0.431,-1.595,9.735,3.905,1.321,-1.166
0.431,-1.595,9.735,3.905,1.321,-1.166
0.522,-2.121,9.773,1.205,0.680,-0.719
0.522,-2.121,9.773,1.205,0.680,-0.719
0.575,-2.327,9.970,0.175,0.855,-0.136
0.675,-2.466,10.247,0.525,0.486,0.194
0.747,-2.500,9.965,2.001,0.874,-0.117
0.685,-2.763,9.749,2.079,1.341,-0.291
0.522,-2.864,9.792,0.835,1.438,0.058
0.522,-2.864,9.792,0.835,1.438,0.058
0.488,-2.945,9.649,0.680,2.195,0.408
0.469,-2.710,9.582,0.933,1.632,0.389
0.579,-2.830,9.361,2.040,0.777,0.019
0.306,-2.988,9.543,0.933,0.272,-0.078
0.378,-2.887,9.788,-0.874,1.418,0.991
0.661,-2.782,9.668,-1.496,3.400,2.234
0.646,-2.662,9.634,-1.030,2.642,1.593
0.589,-2.777,9.630,0.602,0.505,0.097
0.484,-2.954,9.692,0.758,-0.427,-0.311
0.421,-3.045,9.634,-0.214,0.019,-0.019
0.421,-3.103,9.831,-1.438,0.758,0.641
0.436,-3.294,9.898,-1.826,0.797,1.010
0.412,-3.318,9.979,-1.535,0.874,0.816
0.369,-3.218,9.821,-0.719,0.699,0.544
0.412,-3.069,9.634,-0.602,0.991,0.758
0.536,-2.974,9.654,-0.641,0.622,0.816
0.651,-3.036,9.740,-0.855,0.291,0.641
0.670,-2.998,9.845,-1.088,-0.117,0.408
0.670,-2.998,9.845,-1.088,-0.117,0.408
0.546,-2.959,9.931,-1.321,0.369,0.019
0.431,-3.002,9.816,-0.699,0.855,0.058
0.464,-3.141,9.682,0.175,0.175,0.233
0.474,-3.122,9.615,0.039,-0.427,-0.019
0.330,-3.098,9.711,-0.680,-1.205,-0.039
0.455,-3.045,9.879,-1.379,-0.408,0.408
0.565,-2.978,9.826,-1.399,0.155,0.097
0.493,-3.122,9.745,-0.136,-1.554,-0.505
0.402,-3.266,9.802,0.505,-3.070,-0.641
0.484,-3.366,9.792,-0.175,-2.506,0.330
0.680,-3.194,9.749,-1.632,-1.205,1.127
0.733,-3.132,9.826,-2.526,-1.107,0.874
0.776,-3.156,9.792,-2.176,-1.457,0.505
0.848,-3.213,9.778,-1.710,-1.574,0.350
0.848,-3.213,9.778,-1.710,-1.574,0.350

1.283,-0.651,11.262,41.344,6.722,-11.482
2.184,-2.188,10.013,52.496,8.451,-10.705
2.749,-2.959,9.505,54.380,4.119,-10.569
3.290,-3.467,10.243,55.177,-3.206,-9.559
2.600,-6.426,11.301,57.275,-6.003,-9.481
2.591,-6.986,11.488,45.754,-0.719,-9.598
1.408,-5.751,10.822,31.202,1.962,-20.575
0.239,-5.847,11.425,17.350,3.497,-27.375
0.517,-5.909,12.316,16.864,5.945,-21.993
0.517,-5.909,12.316,16.864,5.945,-21.993
2.097,-4.779,10.683,20.769,-9.423,-1.263
2.935,-5.392,12.675,9.656,-18.243,0.214
2.950,-6.105,15.299,3.206,-18.030,-1.613
2.677,-5.349,15.280,1.846,-11.307,-3.944
2.246,-4.697,14.150,1.904,-2.234,-4.702
2.437,-3.649,14.078,-1.923,1.943,-1.749
3.275,-2.600,15.539,-2.798,-1.651,2.565
2.739,-2.682,15.596,4.177,-6.120,6.547
2.873,-2.902,15.026,6.878,-4.741,9.462
2.950,-2.696,14.073,6.101,-3.536,10.258
3.117,-2.140,13.513,2.934,-1.418,9.364
3.491,-1.427,14.040,-0.874,-0.058,8.451
2.792,-1.547,14.332,4.605,0.389,7.499
2.562,-1.657,12.393,6.897,5.848,5.634
2.351,-2.016,12.086,3.789,7.849,3.672
1.868,-1.848,11.622,2.798,4.585,4.430
1.958,-1.767,10.908,1.535,2.992,6.295
1.958,-1.767,10.908,1.535,2.992,6.295
1.939,-1.619,11.066,-2.487,3.283,7.927
2.131,-1.192,10.463,-5.459,11.210,5.323
2.131,-1.192,10.463,-5.459,11.210,5.323
0.488,-2.461,7.595,-13.192,6.392,6.955
1.446,-1.695,7.269,-33.436,2.312,8.840
4.214,-1.283,11.406,-50.222,-11.871,10.666
2.030,-2.658,12.666,-33.533,-24.868,4.605
2.011,-2.605,12.062,-16.456,-4.605,1.943
1.997,-1.537,8.806,-6.509,7.907,1.923
1.762,-0.809,6.599,-12.007,2.817,1.593
2.519,-0.010,9.031,-20.497,-4.779,0.194
1.178,-1.178,9.984,-9.772,-7.888,1.535
1.427,-1.216,8.662,-6.062,-1.651,4.915
1.987,-1.259,8.116,-14.047,1.865,6.159
2.093,-1.231,8.653,-25.529,1.010,5.362
2.035,-0.220,9.845,-31.824,-3.167,7.946
1.494,-0.790,11.090,-25.335,-2.176,9.151
1.288,-1.178,10.190,-17.699,2.137,8.782
1.590,-0.819,9.275,-19.254,-0.272,8.587
1.403,-0.417,10.209,-23.994,-1.846,7.247
1.403,-0.417,10.209,-23.994,-1.846,7.247
1.379,0.067,11.421,-19.234,0.525,4.760
0.503,-0.091,10.726,-7.577,-7.635,3.575
0.158,-0.934,9.922,-4.935,-10.491,3.750
0.230,-0.441,10.243,-10.627,-6.237,6.062
0.675,0.330,10.803,-10.044,-2.642,6.645
0.661,0.488,10.597,0.311,-4.643,5.634
0.661,0.488,10.597,0.311,-4.643,5.634
1.188,-0.019,9.855,6.042,-3.050,4.507
1.575,0.105,10.180,1.496,1.943,3.458
1.556,0.081,10.362,1.341,5.285,1.574
1.504,-0.220,10.161,5.673,6.062,0.253
1.422,-0.565,9.754,9.054,6.101,-0.330
1.422,-0.565,9.754,9.054,6.101,-0.330
1.475,-0.915,9.567,7.169,6.314,0.427
1.341,-0.709,9.500,6.431,6.275,0.214
1.063,-0.785,9.405,6.373,6.178,0.466
1.077,-1.173,9.338,5.498,6.314,0.525
1.235,-1.403,9.543,3.419,4.469,-0.602
1.063,-1.599,9.989,2.312,0.602,-2.059
1.063,-1.599,9.989,2.312,0.602,-2.059
1.317,-2.026,10.362,0.330,2.331,-0.680
1.413,-2.231,10.180,0.738,2.603,-0.272
1.417,-2.308,10.171,1.379,1.651,-0.291
1.556,-2.557,10.089,1.146,0.971,-0.602
1.298,-2.720,10.080,1.146,0.253,-1.360
1.226,-2.868,9.946,1.243,0.602,-1.030
1.346,-3.055,9.625,1.807,1.379,-0.408
1.360,-2.878,9.390,0.738,1.729,-0.175
1.370,-2.835,9.893,-0.855,0.680,0.699
1.451,-2.830,9.864,0.097,-0.525,0.214
1.274,-2.945,9.812,0.447,-0.466,-0.389
1.331,-2.844,9.821,-0.505,0.816,0.214
1.441,-2.629,9.539,-0.602,2.021,0.233
1.379,-2.744,9.692,-1.457,0.719,-0.253
1.259,-2.801,9.984,-1.477,-0.855,-0.874
1.279,-3.012,10.037,-0.214,-0.680,-1.146
1.279,-3.012,10.037,-0.214,-0.680,-1.146
1.307,-3.093,10.166,0.039,0.583,-0.544
1.379,-2.892,9.764,0.291,1.496,-0.117
1.379,-2.892,9.764,0.291,1.496,-0.117
1.379,-2.787,9.687,0.058,1.205,-0.117
1.413,-2.729,9.668,-0.233,-0.078,-0.661
1.255,-2.811,9.764,-0.389,-0.019,-0.874
1.207,-3.007,9.836,-0.408,1.185,-0.447
1.207,-3.007,9.836,-0.408,1.185,-0.447
1.173,-3.136,9.864,1.166,0.680,-0.583
1.106,-3.203,9.539,2.021,0.039,-0.835
0.982,-3.050,9.424,0.622,0.253,-0.602
1.207,-3.017,9.668,-0.855,1.302,0.622
1.264,-2.945,9.692,-0.563,1.496,0.525
1.140,-3.007,9.692,0.466,0.369,0.835
1.207,-2.892,9.692,0.544,0.408,1.088
1.312,-2.667,9.802,-0.427,0.661,0.797
1.283,-2.768,9.706,-0.291,0.544,0.291
1.221,-2.811,9.678,-0.175,1.321,0.117
1.149,-2.954,9.773,-0.233,2.098,0.058
1.130,-3.108,9.687,0.078,2.137,0.097
1.130,-3.108,9.687,0.078,2.137,0.097
1.125,-2.902,9.721,0.019,2.157,0.214
1.221,-2.864,9.840,0.505,1.923,-0.155
1.092,-2.950,9.869,1.710,0.408,-0.699
1.164,-2.998,9.673,1.477,0.777,-0.641
1.130,-2.950,9.639,-0.214,1.729,0.136
1.197,-2.777,9.826,-1.671,2.351,0.738
1.250,-2.911,9.869,-0.797,1.515,0.389
1.121,-3.055,9.864,0.058,0.000,-0.078
1.121,-3.055,9.864,0.058,0.000,-0.078
1.130,-2.998,10.065,-0.641,0.894,0.058
1.111,-2.993,10.128,-0.330,0.797,0.078
1.111,-2.993,10.128,-0.330,0.797,0.078

4.530,-14.394,6.326,-12.492,6.625,-15.193
3.572,-14.926,6.177,-10.006,14.377,-15.038
3.572,-14.926,6.177,-10.006,14.377,-15.038
2.591,-14.131,7.135,-9.714,-0.447,-15.873
2.409,-14.413,8.811,-12.201,-15.718,-14.746
1.858,-13.719,10.075,-17.175,-17.894,-7.441
2.461,-12.584,10.597,-15.931,-3.555,-3.342
3.840,-11.933,10.247,-8.782,3.089,-2.273
4.171,-11.013,10.439,-5.421,-2.973,0.214
4.257,-10.329,10.209,-3.789,-1.185,2.079
4.381,-10.080,10.113,-3.633,6.839,2.623
4.381,-10.080,10.113,-3.633,6.839,2.623
2.921,-10.717,10.889,-3.011,4.663,-1.282
2.121,-11.013,11.157,-2.195,5.051,0.194
2.466,-10.228,11.828,-0.291,-1.185,5.945
2.466,-10.228,11.828,-0.291,-1.185,5.945
3.520,-9.730,11.708,8.451,-11.463,14.183
3.180,-9.840,11.004,11.910,-10.530,13.192
2.935,-9.826,9.745,13.114,-6.606,12.920
2.969,-9.955,8.653,12.570,-2.759,13.464
3.223,-9.936,8.274,9.112,-3.886,18.107
3.553,-8.356,8.227,4.935,-4.605,21.915
3.443,-7.307,8.902,4.585,-3.342,23.023
2.959,-6.393,8.547,8.218,1.923,17.991
2.227,-6.594,7.427,11.268,9.054,11.327
1.580,-6.110,6.555,9.520,11.871,9.831
1.709,-5.167,6.900,5.343,7.150,11.443
1.355,-4.228,7.748,3.536,-2.098,13.697
1.235,-4.013,8.361,7.966,-4.138,13.153
0.910,-3.630,7.729,12.065,1.418,8.626
0.776,-3.002,7.484,11.618,8.238,3.827
0.464,-2.500,7.853,7.383,7.849,5.790
0.464,-2.500,7.853,7.383,7.849,5.790
0.096,-1.518,8.356,4.896,6.567,6.509
-0.632,-0.364,7.599,10.705,10.919,5.071
-0.570,-0.120,7.585,9.403,12.745,4.041
-0.575,0.781,8.519,4.915,8.238,5.401
-0.115,1.346,9.419,4.488,2.817,6.567
-0.192,1.906,9.816,7.169,-1.107,4.935
0.053,1.930,10.142,9.228,-1.418,4.061
0.259,2.040,10.386,8.820,-0.136,3.691
0.532,2.026,10.573,6.567,2.720,2.973
0.532,2.026,10.573,6.567,2.720,2.973
0.134,2.270,9.759,6.936,4.721,1.069
0.034,2.040,9.304,7.499,4.022,1.379
0.019,2.145,9.275,6.353,1.554,1.496
0.235,1.547,9.749,6.334,-3.070,1.923
0.235,1.547,9.749,6.334,-3.070,1.923
-0.053,1.820,10.458,5.401,-5.401,0.874
0.163,1.590,10.453,3.400,1.049,0.874
0.335,1.379,10.420,2.234,2.701,1.302
0.335,1.058,10.410,2.603,0.913,0.466
0.383,0.728,10.329,4.119,-0.505,-0.583
0.450,0.196,9.979,6.431,-1.593,-1.224
0.579,-0.306,9.931,7.325,-2.837,-1.690
0.737,-0.603,10.132,5.615,-2.934,-2.429
0.503,-1.211,10.238,4.294,-2.293,-3.536
0.503,-1.211,10.238,4.294,-2.293,-3.536
-0.010,-1.460,10.166,1.865,0.505,-3.031
-0.029,-1.460,10.223,0.039,3.031,-0.680
0.072,-1.590,10.214,-1.593,4.935,0.816
-0.057,-1.719,10.357,-1.399,4.158,0.913
-0.192,-1.896,10.051,0.835,1.885,1.069
-0.038,-2.160,10.017,0.738,0.738,1.846
0.134,-2.131,10.219,-0.583,1.088,2.195
0.302,-2.121,10.353,-1.243,1.943,2.526
0.532,-1.997,10.463,-1.360,2.409,2.623
0.532,-1.997,10.463,-1.360,2.409,2.623
0.666,-1.853,10.266,1.185,2.234,0.680
0.493,-1.973,10.266,1.341,1.710,-0.039
0.397,-2.117,10.180,1.166,2.079,0.019
0.388,-2.064,10.123,0.894,2.584,-0.214
0.177,-2.006,9.840,0.738,1.962,-0.311
0.177,-2.006,9.840,0.738,1.962,-0.311
0.211,-1.982,9.931,-1.457,2.118,0.699
0.211,-1.982,9.931,-1.457,2.118,0.699
0.120,-2.275,9.955,-0.835,0.505,-0.233
0.014,-2.313,9.994,-0.136,-1.185,-0.583
0.053,-2.303,10.037,0.214,-1.962,-0.427
0.053,-2.303,10.037,0.214,-1.962,-0.427
0.239,-2.021,10.180,-0.797,0.039,0.330
0.239,-2.021,10.180,-0.797,0.039,0.330
0.172,-1.925,10.142,-0.738,0.699,-0.019
0.187,-1.949,9.979,-0.466,1.710,0.155
0.187,-1.949,9.979,-0.466,1.710,0.155
0.125,-1.982,9.927,-0.039,0.214,-0.097
0.110,-2.049,9.984,-0.175,-0.019,-0.291
0.110,-2.049,9.984,-0.175,-0.019,-0.291
0.000,-2.064,10.128,-0.622,0.408,-0.233
0.038,-2.045,9.931,-1.263,1.710,0.738
0.105,-1.935,10.027,-1.243,0.544,0.758
0.163,-1.935,10.180,-0.680,-0.117,0.738
0.225,-1.848,10.094,-0.408,-0.078,0.369
0.230,-1.839,10.271,-0.913,0.117,0.233
0.297,-1.858,10.257,-0.874,1.205,0.486
0.287,-1.829,10.132,-0.311,1.613,0.408
0.187,-1.891,9.984,0.117,1.069,0.019
0.029,-2.102,10.017,-0.330,1.205,-0.097
0.029,-2.102,10.017,-0.330,1.205,-0.097
-0.014,-2.260,10.257,-0.505,0.680,-0.058
-0.014,-2.284,10.156,0.272,1.088,0.136
0.000,-2.093,9.893,0.447,1.399,0.350
0.139,-1.944,9.859,-0.136,1.904,0.797
0.239,-1.939,9.974,-0.525,2.293,1.030
0.311,-1.882,9.960,-0.233,1.943,0.525
0.235,-2.011,9.898,0.117,1.107,-0.563
0.144,-1.853,9.816,-0.738,1.185,-1.243
0.177,-1.796,9.730,-1.477,2.098,-0.835
0.129,-1.709,9.855,-1.865,2.565,-0.505
0.034,-1.671,9.912,-0.214,1.768,-0.894
-0.182,-1.772,9.783,0.855,1.185,-1.457
-0.278,-1.700,9.721,-0.214,2.215,-1.205
-0.316,-1.824,9.859,-1.496,2.720,-0.777
-0.474,-1.844,10.128,-2.040,2.098,-0.525
-0.417,-1.781,10.176,-1.535,2.526,0.408
-0.374,-1.508,9.845,-0.214,2.856,1.049
-0.350,-1.202,9.697,0.175,2.234,1.243
-0.350,-1.202,9.697,0.175,2.234,1.243
-0.421,-1.015,9.903,0.272,0.738,1.535

-1.537,5.004,9.208,-16.922,5.032,7.558
-1.207,5.315,6.953,-15.815,2.875,4.935
-0.742,5.018,5.444,-14.474,2.992,1.982
-0.115,4.156,3.874,-16.320,1.690,-2.312
0.804,3.093,2.437,-22.731,2.293,-8.121
0.804,3.093,2.437,-22.731,2.293,-8.121
2.509,-2.710,2.040,-34.971,-0.525,-26.753
3.845,-6.599,1.657,-36.001,0.719,-27.880
5.603,-11.641,1.652,-35.399,5.965,-26.539
5.603,-11.641,1.652,-35.399,5.965,-26.539
5.622,-18.479,2.313,-30.619,4.799,-24.849
4.195,-20.284,3.184,-29.628,10.433,-26.170
3.045,-21.778,4.745,-27.821,17.932,-23.975
3.045,-21.778,4.745,-27.821,17.932,-23.975
0.441,-21.017,6.560,-21.799,16.844,-28.346
0.441,-21.017,6.560,-21.799,16.844,-28.346
-1.571,-18.642,7.800,-11.424,-6.003,-19.079
-1.571,-18.642,7.800,-11.424,-6.003,-19.079
4.013,-14.097,8.447,-9.986,7.441,13.172
5.531,-12.809,8.806,-10.802,6.275,13.386
4.697,-12.225,8.447,-7.752,-2.157,4.391
3.223,-13.164,8.480,-3.633,-13.755,-3.614
2.140,-13.781,8.787,-4.488,-22.187,-4.624
2.078,-13.853,8.638,-6.897,-21.060,-1.768
1.911,-13.709,7.920,-8.296,-15.543,1.826
1.982,-12.694,7.585,-4.682,-9.403,9.073
2.605,-12.335,6.287,3.109,-1.477,14.882
2.610,-12.129,4.209,10.550,4.080,13.639
2.356,-11.933,3.778,14.124,-0.058,14.338
1.930,-10.803,3.438,13.444,-1.302,15.990
1.714,-9.587,3.290,14.960,4.177,18.690
1.714,-9.587,3.290,14.960,4.177,18.690
1.925,-8.236,2.504,20.322,4.507,16.048
1.925,-8.236,2.504,20.322,4.507,16.048
1.662,-7.820,3.199,20.361,-6.975,13.561
1.049,-6.239,4.525,19.351,-11.346,8.082
0.546,-6.101,4.683,21.041,-6.450,7.130
0.450,-5.392,4.573,21.196,-2.195,7.888
0.527,-4.841,4.587,17.796,2.098,8.374
0.254,-4.137,4.793,12.745,2.798,7.927
-0.014,-4.003,5.847,7.868,1.749,8.471
-0.350,-3.769,6.474,4.974,4.216,8.529
-0.761,-3.500,6.895,3.808,7.927,7.752
-1.322,-3.189,6.996,4.449,7.053,8.121
-1.623,-2.576,7.551,4.954,5.110,8.121
-1.226,-2.169,8.322,6.334,2.118,8.782
-0.766,-1.915,9.170,7.616,-0.466,8.374
-1.140,-1.681,9.768,9.326,-0.894,5.421
-1.599,-0.972,10.089,11.152,-1.496,2.934
-1.920,-0.244,10.113,14.299,0.641,5.013
-0.996,-0.374,9.673,14.882,7.849,8.335
-0.579,-0.014,9.749,12.706,8.820,8.995
-0.369,0.326,10.262,9.462,5.382,7.325
-0.699,0.924,10.827,8.568,3.206,4.993
-0.867,0.498,10.865,10.044,4.119,2.934
-0.670,0.153,10.635,10.666,6.042,2.254
-0.345,-0.685,10.448,9.442,7.519,1.088
-0.613,-1.216,10.477,7.363,4.255,-1.321
-0.838,-1.556,10.808,5.867,0.738,-3.186
-1.159,-1.968,10.908,8.257,-0.738,-4.352
-1.159,-1.968,10.908,8.257,-0.738,-4.352
-1.188,-2.801,10.410,10.530,1.574,-2.506
-1.298,-2.883,10.195,8.315,2.254,-1.671
-1.374,-2.978,10.080,5.440,4.197,-1.185
-1.374,-2.978,10.080,5.440,4.197,-1.185
-1.676,-3.098,10.123,4.371,3.944,-1.826
-1.647,-3.611,9.663,9.947,1.923,-0.253
-1.532,-3.716,9.304,10.491,1.185,0.350
-1.489,-3.625,9.074,8.043,0.933,1.321
-1.489,-3.625,9.074,8.043,0.933,1.321
-1.116,-3.294,9.132,1.341,2.234,2.662
-1.159,-3.338,9.371,0.078,1.321,1.962
-1.015,-3.433,9.462,0.913,0.913,1.787
-1.135,-3.572,9.328,2.157,0.019,1.360
-1.269,-3.630,9.395,2.312,-0.622,0.971
-1.211,-3.634,9.414,1.438,-0.078,1.341
-1.317,-3.529,9.438,0.408,0.933,1.360
-1.317,-3.529,9.438,0.408,0.933,1.360
-1.398,-3.620,9.519,1.807,0.622,1.107
-1.355,-3.630,9.242,2.195,0.699,1.418
-1.322,-3.663,9.203,1.710,0.427,1.826
-1.125,-3.611,9.280,0.505,0.544,2.001
-1.125,-3.611,9.280,0.505,0.544,2.001
-0.915,-3.529,9.323,0.330,0.389,1.205
-0.986,-3.515,9.266,0.583,0.117,0.408
-1.149,-3.615,9.347,0.835,0.097,0.253
-1.039,-3.567,9.338,0.835,0.894,0.505
-1.149,-3.548,9.184,0.175,1.418,0.155
-1.274,-3.529,9.184,-0.078,0.894,-0.194
-1.360,-3.524,9.242,-0.214,0.952,-0.039
-1.379,-3.500,9.338,0.272,0.699,-0.175
-1.504,-3.548,9.419,0.272,0.389,-0.136
-1.504,-3.606,9.505,0.525,0.855,0.194
-1.370,-3.476,9.424,0.602,1.496,0.641
-1.379,-3.529,9.515,0.389,0.486,0.427
-1.374,-3.515,9.716,0.330,0.311,0.058
-1.302,-3.615,9.706,0.641,0.408,0.117
-1.302,-3.615,9.706,0.641,0.408,0.117
-1.389,-3.601,9.563,2.001,0.641,0.311
-1.326,-3.481,9.405,2.059,0.719,0.680
-1.168,-3.352,9.266,1.224,1.282,1.146
-1.211,-3.314,9.385,1.030,1.127,0.563
-1.211,-3.314,9.385,1.030,1.127,0.563
-1.274,-3.448,9.395,1.515,0.525,0.039
-1.293,-3.472,9.467,0.933,1.379,0.097
-1.283,-3.448,9.381,1.302,1.613,0.350
-1.283,-3.448,9.381,1.302,1.613,0.350
-1.341,-3.472,9.366,2.021,1.185,0.369
-1.264,-3.357,9.500,1.399,1.457,0.194
-1.413,-3.328,9.553,1.710,1.205,0.019
-1.312,-3.194,9.338,2.565,1.515,0.525
-1.188,-2.993,9.199,2.021,1.923,0.563
-1.164,-2.935,9.390,0.991,1.865,0.291
-1.302,-2.954,9.491,0.874,1.865,-0.253
-1.346,-3.189,9.433,2.079,1.749,-0.019
-1.384,-3.227,9.357,2.701,2.021,-0.408
-1.489,-3.184,9.338,2.331,1.865,-0.719
-1.489,-3.184,9.338,2.331,1.865,-0.719
-1.551,-3.007,9.534,1.651,3.711,0.563

-3.151,0.919,14.337,19.623,3.575,2.137
-3.577,2.160,16.405,21.410,-0.369,2.409
-4.022,2.940,18.393,25.160,-4.061,4.177
-4.022,2.940,18.393,25.160,-4.061,4.177
-4.640,5.952,18.766,37.322,-3.672,10.569
-4.669,7.278,17.842,44.627,-3.905,12.998
-4.535,8.370,16.760,48.824,-4.896,14.027
-4.496,8.969,15.342,49.698,-3.186,15.018
-4.516,10.295,13.647,44.685,1.943,17.136
-3.783,10.946,11.914,38.993,8.820,18.068
-2.356,10.587,10.439,38.837,8.160,14.358
-2.356,10.587,10.439,38.837,8.160,14.358
0.024,6.795,6.996,41.227,3.245,-1.923
0.872,4.257,5.535,34.991,4.663,-9.248
2.643,2.313,4.056,28.540,10.200,-15.174
4.008,-0.579,2.595,24.849,9.831,-22.984
3.950,-3.979,2.624,21.196,-0.175,-31.591
2.624,-6.517,3.764,16.806,-5.557,-30.658
2.543,-8.207,3.668,14.202,2.137,-19.467
2.945,-10.132,3.821,8.004,7.422,-12.609
1.844,-9.965,4.463,-5.265,6.081,-15.620
1.844,-9.965,4.463,-5.265,6.081,-15.620
-0.464,-9.093,8.064,-22.420,-5.887,-25.121
-3.893,-7.997,11.703,-28.210,-13.911,-23.023
-5.770,-7.073,13.647,-22.498,-10.025,-18.379
-5.617,-5.521,12.910,-6.664,0.680,-13.503
-4.765,-4.535,11.310,2.778,-0.058,-7.247
-4.765,-4.535,11.310,2.778,-0.058,-7.247
-1.331,-2.217,10.142,-0.369,-4.449,11.385
-1.690,-1.738,11.842,-3.225,-15.446,10.783
-2.389,-1.666,13.125,-0.971,-20.516,9.967
-2.045,-0.742,13.336,-0.097,-14.940,13.192
-2.045,-0.742,13.336,-0.097,-14.940,13.192
-0.876,-0.522,11.488,2.642,-5.906,16.145
-1.288,-0.110,10.511,1.807,-5.129,14.144
-0.934,-0.340,10.247,-2.118,-3.361,13.464
-0.934,-0.340,10.247,-2.118,-3.361,13.464
-0.627,-0.268,10.204,-8.529,-2.118,11.676
-0.321,-0.412,9.534,-6.217,0.155,12.881
-0.096,0.239,8.998,-5.168,-3.186,12.201
0.211,-0.120,8.873,-5.129,-9.073,10.666
-0.129,-0.292,8.806,-7.927,-12.862,9.112
-0.618,-0.120,9.251,-11.035,-6.373,8.121
-0.426,0.345,8.701,-10.958,2.895,9.015
0.062,1.097,8.409,-10.316,2.273,9.539
-0.220,1.235,8.356,-8.510,-4.721,7.150
-0.402,1.322,8.796,-10.394,-5.343,4.216
-0.862,1.676,8.954,-14.552,1.282,2.098
-1.073,1.786,8.868,-15.407,6.353,1.632
-1.073,1.786,8.868,-15.407,6.353,1.632
-0.953,2.562,8.500,-12.415,3.381,2.118
-1.274,2.682,9.079,-12.182,0.680,-0.136
-1.997,2.782,9.519,-12.162,-1.690,-2.098
-1.997,2.782,9.519,-12.162,-1.690,-2.098
-2.236,3.376,9.371,-7.674,4.216,-0.155
-2.394,3.280,10.022,-8.743,6.567,1.263
-2.217,3.922,10.793,-9.481,8.063,0.680
-2.246,3.759,10.693,-4.799,8.451,-0.136
-2.595,3.266,10.343,-1.010,8.704,-0.291
-2.653,3.395,10.243,-2.914,12.240,0.699
-2.782,3.496,10.017,-5.887,17.116,1.729
-2.547,3.611,9.955,-8.043,17.719,1.379
-2.547,3.611,9.955,-8.043,17.719,1.379
-3.136,3.261,11.033,-1.846,3.905,1.865
-3.122,3.079,11.239,0.719,2.370,2.059
-2.571,3.108,11.152,-2.973,7.402,2.118
-2.667,3.553,11.109,-6.664,10.744,1.282
-2.495,3.203,11.282,-7.791,10.414,1.438
-2.916,3.290,11.507,-7.402,8.063,0.777
-3.136,3.218,11.454,-5.945,6.567,1.457
-2.773,3.055,11.162,-3.730,4.974,2.137
-2.437,2.725,11.133,-2.021,0.719,0.622
-2.643,2.366,11.334,-0.991,-2.448,-1.379
-2.725,1.973,11.545,-0.253,-4.002,-0.797
-2.763,1.604,11.258,-0.136,-2.759,0.447
-2.643,1.403,10.927,-0.214,-1.807,1.341
-2.284,1.307,10.439,0.389,-2.293,1.496
-2.284,1.307,10.439,0.389,-2.293,1.496
-2.126,0.867,10.027,2.195,-6.256,0.330
-2.126,0.867,10.027,2.195,-6.256,0.330
-2.289,0.239,10.319,-0.563,-4.255,0.563
-2.203,0.129,10.458,-1.749,-1.224,0.738
-2.131,0.010,10.401,-1.263,0.039,0.699
-2.246,-0.043,10.257,-0.272,-0.117,0.233
-2.193,-0.091,10.061,0.622,-0.078,0.194
-2.054,-0.038,9.936,0.777,0.408,0.525
-2.078,0.201,9.864,0.738,0.447,0.350
-1.882,0.201,9.668,0.330,1.146,0.661
-2.016,0.129,9.773,-0.583,1.069,-0.933
-2.284,-0.038,9.931,-0.933,-0.058,-2.603
-2.284,-0.038,9.931,-0.933,-0.058,-2.603
-2.638,-0.560,10.185,-0.291,-0.563,-2.409
-2.547,-0.436,10.147,-0.058,0.058,-1.282
-2.303,-0.421,10.032,0.039,0.719,-0.058
-2.193,-0.249,10.065,0.194,0.447,-0.117
-2.174,-0.105,9.888,0.272,0.194,-0.602
-2.222,-0.038,10.089,-0.155,-0.719,-0.661
-2.131,0.134,10.046,-0.155,0.272,-0.136
-2.131,0.134,10.046,-0.155,0.272,-0.136
-2.112,0.024,9.946,0.991,-0.097,-0.894
-2.002,0.024,9.859,0.680,0.622,-1.010
-2.002,0.024,9.859,0.680,0.622,-1.010
-2.413,-0.105,9.936,0.350,0.078,-1.807
-2.313,0.053,9.812,0.408,0.855,-0.797
-2.313,0.053,9.812,0.408,0.855,-0.797
-2.217,0.034,9.773,-0.622,1.535,-1.010
-2.413,-0.091,9.888,-1.166,1.243,-1.127
-2.413,-0.091,9.888,-1.166,1.243,-1.127
-2.476,0.010,10.085,-0.855,0.699,-0.855
-2.246,0.062,9.998,0.602,0.952,-0.136
-2.246,0.062,9.998,0.602,0.952,-0.136
-2.356,-0.067,9.960,1.069,1.574,0.758
-2.298,0.081,9.893,0.583,2.234,0.991
-2.207,0.144,9.869,0.835,2.176,0.933
-2.275,0.287,9.663,1.671,1.224,0.350
-2.241,0.215,9.543,1.826,0.758,0.272
-2.241,0.215,9.543,1.826,0.758,0.272
-2.246,0.192,9.768,1.127,0.272,0.155
-2.231,0.014,9.812,0.797,-0.253,-0.155

-2.658,15.840,11.569,3.031,2.953,21.682
-2.658,15.840,11.569,3.031,2.953,21.682
-0.828,13.111,8.049,7.868,2.118,11.035
0.694,10.865,6.129,7.266,2.215,-0.894
0.694,10.865,6.129,7.266,2.215,-0.894
6.445,-0.292,2.222,-6.528,-16.184,-38.371
5.559,-7.432,2.686,-25.840,-21.430,-52.981
4.209,-14.911,2.217,-42.995,-4.294,-52.632
3.735,-16.142,2.078,-56.303,22.634,-52.845
3.577,-16.654,2.404,-47.697,26.500,-48.726
2.543,-15.677,3.041,-30.328,7.868,-41.266
2.543,-15.677,3.041,-30.328,7.868,-41.266
0.354,-14.361,5.076,-22.984,5.673,-26.248
0.828,-13.848,6.555,-22.226,14.416,-14.688
1.341,-13.585,9.069,-13.114,8.646,-8.471
-0.345,-14.452,11.775,-2.273,-7.868,-12.046
-2.188,-11.722,12.019,-0.175,-10.530,-19.953
-2.150,-11.330,12.057,0.544,3.400,-13.425
-1.025,-10.338,11.976,-0.214,12.551,0.019
-0.230,-9.266,11.717,1.088,13.464,7.635
-0.350,-8.897,10.990,5.343,6.742,6.237
-0.819,-8.993,10.128,9.792,-3.925,2.759
-1.039,-9.256,10.104,11.152,-13.794,4.760
-0.517,-8.868,10.975,7.966,-18.690,11.618
0.129,-8.088,10.875,7.597,-15.232,16.553
0.618,-7.571,10.219,11.132,-9.384,18.418
0.613,-6.967,9.663,13.367,-6.334,18.166
0.426,-7.082,9.572,11.929,-6.295,18.399
0.603,-6.565,9.237,9.675,-4.546,19.156
0.972,-6.713,8.744,9.870,-0.291,20.031
0.972,-6.713,8.744,9.870,-0.291,20.031
0.354,-4.846,7.820,10.802,5.518,19.798
-0.081,-3.888,6.795,11.307,4.721,18.710
-0.579,-3.515,6.096,9.967,3.322,15.659
-0.579,-2.634,6.627,6.489,0.874,13.561
-0.570,-1.762,7.609,5.032,-4.663,14.086
-1.264,-0.378,8.294,5.207,-5.965,13.833
-1.676,0.321,8.241,5.634,-0.058,10.180
-2.030,0.996,8.428,2.701,2.584,5.751
-2.586,1.619,9.045,-1.302,2.934,5.304
-2.926,2.150,9.146,-2.837,4.488,5.770
-2.988,2.203,9.701,-2.526,5.226,5.654
-2.806,2.203,10.118,-0.505,5.013,4.527
-2.964,2.145,10.233,3.672,3.400,5.129
-2.658,2.653,9.740,6.470,3.633,5.751
-2.385,2.878,9.510,8.665,5.421,6.139
-2.385,2.878,9.510,8.665,5.421,6.139
-2.117,3.563,9.826,8.801,-0.544,1.729
-2.078,3.577,10.176,7.402,-1.069,0.330
-2.207,3.697,10.271,6.178,1.807,1.943
-2.389,4.180,10.099,3.594,7.927,2.662
-2.174,4.817,9.558,0.447,11.599,2.157
-2.078,5.076,9.548,0.641,7.383,1.360
-1.733,4.592,10.027,0.078,1.690,0.991
-1.896,4.578,10.654,-3.381,0.991,-1.069
-2.073,4.448,11.449,-7.033,2.681,-0.952
-2.002,4.123,11.459,-8.218,5.945,-0.933
-1.906,3.376,11.349,-6.664,5.323,-1.671
-2.112,2.931,11.373,-5.013,1.185,-2.837
-2.547,2.337,11.258,-2.176,-2.137,-3.070
-2.830,1.724,10.870,-0.330,-2.720,-2.331
-2.634,1.432,10.568,-0.272,-2.351,-1.049
-2.433,0.905,10.223,-0.661,-2.973,-0.894
-2.346,0.393,10.118,-0.389,-5.071,-1.613
-2.418,-0.091,10.539,0.214,-7.674,-1.671
-2.265,-0.532,10.712,1.243,-6.664,-0.019
-2.006,-0.656,10.568,1.321,-3.342,1.729
-1.786,-0.532,10.314,0.680,-1.574,1.943
-1.858,-0.761,10.319,0.622,-3.147,1.885
-1.992,-0.886,10.314,0.680,-3.847,1.982
-1.915,-0.776,10.286,1.030,-3.128,2.098
-1.887,-0.733,9.936,1.923,-2.856,1.826
-1.815,-0.733,9.879,2.331,-3.283,1.846
-1.652,-0.723,9.917,0.583,-2.565,2.487
-1.571,-0.728,10.046,-1.457,-1.632,2.623
-1.437,-0.584,10.056,-1.690,-1.710,2.429
-1.336,-0.728,9.998,-0.971,-1.768,2.254
-1.302,-0.814,10.061,-1.010,-1.943,1.613
-1.480,-0.929,10.108,-1.865,-2.195,0.971
-1.470,-0.809,10.190,-2.701,-1.069,1.127
-1.470,-0.809,10.190,-2.701,-1.069,1.127
-1.422,-0.761,9.888,-1.904,-0.641,0.447
-1.504,-0.905,9.783,-0.971,-1.923,-0.272
-1.504,-0.905,9.783,-0.971,-1.923,-0.272
-1.532,-1.006,10.065,-1.749,-1.302,0.661
-1.293,-0.843,10.161,-2.137,0.525,0.913
-1.279,-0.915,10.089,-1.010,-0.408,-0.039
-1.427,-0.962,10.176,-0.389,-1.651,-0.525
-1.427,-0.967,10.233,-0.330,-1.360,0.039
-1.427,-0.967,10.233,-0.330,-1.360,0.039
-1.068,-0.637,10.032,0.000,-0.019,0.563
-1.164,-0.675,10.003,0.583,-0.622,-0.408
-1.283,-0.728,10.051,-0.155,-0.797,-0.699
-1.279,-0.733,10.113,-1.535,0.738,-0.330
-1.336,-0.800,10.061,-1.379,0.525,-0.253
-1.336,-0.800,10.061,-1.379,0.525,-0.253
-1.365,-1.015,10.085,-0.389,-0.058,-0.058
-1.341,-0.948,10.171,-0.350,0.311,0.058
-1.341,-0.948,10.171,-0.350,0.311,0.058
-1.360,-0.833,10.104,-0.466,0.544,0.330
-1.240,-0.785,10.099,-0.369,0.991,0.661
-1.240,-0.785,10.099,-0.369,0.991,0.661
-1.245,-0.757,10.099,0.175,0.680,0.505
-1.159,-0.886,10.199,0.505,-0.194,-0.155
-1.116,-0.867,10.266,0.350,0.155,-0.078
-1.164,-0.800,10.128,0.369,0.835,-0.039
-1.250,-0.733,10.180,0.214,1.263,0.078
-1.240,-0.709,10.022,0.680,1.263,-0.039
-1.341,-0.795,9.979,0.971,0.952,-0.253
-1.365,-0.919,9.955,0.991,0.971,-0.291
-1.441,-1.044,9.984,0.719,0.797,-0.097
-1.441,-1.044,9.984,0.719,0.797,-0.097
-1.341,-0.737,9.950,0.078,1.282,0.699
-1.279,-0.747,9.984,0.175,1.302,0.855
-1.341,-0.723,9.960,-0.369,1.457,0.894
-1.250,-0.603,10.032,-0.991,1.496,0.758
-1.211,-0.733,10.310,-0.719,0.699,0.525
-1.235,-0.919,10.290,0.019,0.350,0.330
-1.235,-0.919,10.290,0.019,0.350,0.330

-3.539,-0.048,9.021,-0.758,30.192,3.419
-4.080,0.144,9.180,0.602,32.018,3.730
-4.080,0.144,9.180,0.602,32.018,3.730
-4.913,1.140,9.371,-5.401,41.033,5.595
-5.325,1.532,9.745,-4.527,43.830,7.266
-5.478,2.480,9.898,-4.993,49.776,10.103
-5.559,3.941,10.180,-6.528,55.002,11.929
-6.033,5.555,9.912,-6.217,54.244,10.375
-6.991,6.713,9.692,-5.401,51.563,10.083
-7.527,8.595,9.893,-5.032,48.513,11.851
-7.527,8.595,9.893,-5.032,48.513,11.851
-8.715,11.186,9.515,-8.257,42.315,10.588
-9.127,11.483,9.342,-10.686,39.517,8.218
-9.127,11.483,9.342,-10.686,39.517,8.218
-10.219,12.972,10.094,-20.594,42.995,-2.176
-9.874,12.450,8.859,-16.242,45.385,-7.674
-9.874,12.450,8.859,-16.242,45.385,-7.674
-6.077,6.790,6.713,3.128,44.102,-20.730
-3.338,2.035,4.841,10.414,45.462,-28.812
-0.460,-3.654,2.576,4.993,49.115,-37.477
-0.129,-10.913,2.605,-14.532,64.483,-42.587
2.279,-16.243,3.136,-19.934,86.884,-25.276
4.750,-20.543,0.541,17.078,75.907,-3.672
2.356,-24.120,-3.055,57.353,43.889,-1.438
-0.824,-26.729,-5.741,61.219,36.739,-9.500
-4.851,-21.381,-9.385,34.563,59.237,-23.295
-8.610,-16.324,-12.297,15.271,78.160,-19.681
-8.064,-11.626,-12.067,0.117,60.714,-3.303
-5.909,-8.495,-6.733,-13.794,13.425,10.122
-5.909,-8.495,-6.733,-13.794,13.425,10.122
-4.104,-6.857,0.125,-19.195,-27.666,13.464
-6.733,-7.269,5.095,-2.390,-27.880,-1.321
-8.624,-8.586,3.065,3.730,-6.936,-4.255
-9.505,-9.390,0.464,7.480,4.682,-1.418
-9.012,-8.859,-2.236,8.218,12.842,4.333
-7.590,-8.729,-3.807,4.313,15.310,8.024
-6.934,-8.725,-4.080,-2.681,8.995,7.752
-6.962,-8.682,-3.520,-8.412,1.632,5.207
-7.504,-8.907,-2.820,-8.296,-6.256,3.089
-7.504,-8.907,-2.820,-8.296,-6.256,3.089
-7.542,-9.084,-2.437,-9.831,-8.412,6.819
-7.542,-9.084,-2.437,-9.831,-8.412,6.819
-6.680,-8.021,-2.677,-15.737,-2.720,9.967
-7.197,-6.771,-1.475,-20.322,-3.827,6.295
-7.341,-5.401,-1.302,-20.303,-3.283,4.993
-7.906,-4.879,-1.058,-18.962,-3.944,3.070
-7.154,-4.161,-1.475,-16.922,-5.343,4.838
-6.996,-2.514,-1.298,-16.417,-7.558,6.547
-8.447,-2.069,-0.421,-12.590,-16.048,3.400
-9.768,-2.662,-0.364,-7.053,-16.184,0.525
-9.208,-2.600,-0.895,-8.490,-6.858,2.565
-8.720,-2.169,-0.824,-10.686,-2.623,7.422
-8.878,-1.288,-1.456,-9.112,-1.729,9.811
-9.117,-1.408,-1.887,-6.353,-4.119,9.306
-8.887,-1.259,-1.604,-6.256,-5.557,9.345
-8.887,-1.259,-1.604,-6.256,-5.557,9.345
-8.025,-0.129,-1.379,-6.198,-0.175,11.599
-7.757,0.623,-2.049,-4.061,-0.097,9.364
-7.757,0.623,-2.049,-4.061,-0.097,9.364
-8.140,0.206,-1.125,-2.798,-14.144,4.546
-8.140,0.206,-1.125,-2.798,-14.144,4.546
-8.796,1.030,0.283,-2.545,-9.539,2.681
-9.543,0.967,0.464,-0.719,-5.731,0.563
-10.008,1.140,-0.211,1.846,1.321,0.427
-8.959,2.447,-1.250,2.603,7.072,6.062
-7.915,3.740,-1.279,2.992,1.321,9.170
-8.370,2.978,-0.781,7.966,-6.003,5.168
-9.783,2.686,-1.168,9.617,-1.826,1.826
-10.439,2.686,-0.316,5.168,1.360,0.894
-10.199,2.653,0.091,1.302,2.837,3.283
-9.706,2.969,0.594,1.049,1.671,5.401
-9.601,2.974,0.311,5.829,-0.835,6.120
-9.955,3.007,0.134,7.538,-1.923,7.810
-10.032,2.993,0.551,0.019,-0.466,4.974
-10.324,2.361,1.274,-6.955,-0.389,0.913
-10.214,2.049,2.198,-8.762,-0.991,1.885
-9.601,2.078,2.164,-2.992,-2.021,5.809
-9.141,2.030,1.580,3.206,-3.827,8.257
-8.883,1.834,1.092,2.992,-1.923,7.752
-8.883,1.834,1.092,2.992,-1.923,7.752
-8.734,1.226,0.215,-3.944,4.721,1.146
-8.859,0.924,-0.019,-2.798,3.575,1.263
-8.892,0.915,-0.263,-0.408,0.797,1.982
-9.084,0.575,-0.134,-0.253,-1.127,1.263
-9.112,0.215,0.211,-0.991,-0.311,0.000
-9.366,-0.014,0.000,0.544,1.496,-0.777
-9.237,-0.201,-0.551,1.651,1.904,-0.330
-9.031,-0.350,-0.527,0.933,-0.039,-0.408
-9.156,-0.579,-0.455,0.758,-0.078,-1.069
-9.122,-0.666,-0.627,1.554,1.496,-1.010
-8.950,-0.656,-0.800,2.021,1.826,-0.641
-8.854,-0.651,-1.164,0.661,1.088,-0.777
-8.950,-0.723,-1.015,-1.030,0.738,-1.787
-9.146,-0.804,-0.761,-1.399,0.272,-2.137
-9.146,-0.804,-0.761,-1.399,0.272,-2.137
-9.314,-0.512,-0.402,-0.214,-1.030,-1.069
-9.132,-0.469,-0.110,0.369,-1.127,-0.369
-9.060,-0.517,-0.517,0.874,-0.175,-0.058
-8.978,-0.565,-0.651,-0.602,0.019,-1.030
-9.132,-0.728,-0.383,-1.166,-0.117,-1.632
-9.194,-0.776,-0.555,0.311,0.738,-0.699
-9.175,-0.833,-0.623,0.758,0.408,-0.078
-9.165,-0.800,-0.651,0.563,0.039,-0.019
-9.127,-0.819,-0.589,0.291,-0.097,0.078
-9.223,-0.747,-0.546,0.214,-0.505,0.117
-9.074,-0.546,-0.397,0.311,-0.738,0.602
-9.093,-0.374,-0.115,0.855,-1.243,0.758
-9.093,-0.374,-0.115,0.855,-1.243,0.758
-8.978,-0.201,-0.034,0.894,0.369,0.583
-8.993,-0.292,-0.283,0.797,1.418,-0.019
-9.060,-0.354,-0.369,1.127,1.749,0.194
-9.089,-0.383,-0.666,1.710,1.496,0.758
-9.041,-0.374,-0.503,1.010,1.302,0.971
-9.041,-0.374,-0.503,1.010,1.302,0.971
-9.165,-0.469,-0.508,0.952,0.466,0.680
-9.117,-0.378,-0.407,0.311,1.088,0.233
-9.194,-0.441,-0.551,0.971,1.263,0.583
-9.117,-0.479,-0.460,1.224,2.001,1.030
-9.045,-0.340,-0.704,1.438,2.021,1.243

-14.476,5.444,0.172,-5.187,-11.657,24.791
-14.476,5.444,0.172,-5.187,-11.657,24.791
-15.017,6.651,0.929,-7.422,-19.895,34.194
-14.212,8.255,2.002,-8.257,-23.858,39.498
-14.054,9.855,2.926,-7.363,-28.929,42.645
-14.160,11.588,3.711,-4.838,-28.637,44.200
-14.188,12.886,4.702,-3.303,-25.412,43.520
-13.484,13.623,4.755,-0.525,-19.623,40.372
-11.976,13.843,5.421,5.343,-16.786,36.312
-10.089,12.766,6.627,12.531,-14.630,30.677
-6.919,12.096,6.733,21.196,-5.401,26.287
-4.271,10.195,5.593,30.639,4.605,16.145
-1.925,6.934,4.559,35.418,13.056,2.992
-0.105,3.342,2.088,35.845,17.835,-10.355
-0.105,3.342,2.088,35.845,17.835,-10.355
0.407,-5.277,1.930,24.713,7.674,-25.607
0.407,-5.277,1.930,24.713,7.674,-25.607
1.073,-9.792,-0.196,34.233,19.118,-17.350
1.073,-9.792,-0.196,34.233,19.118,-17.350
-0.781,-12.953,-2.083,30.192,-6.023,-33.786
-5.569,-15.179,-0.474,30.891,-12.920,-46.686
-11.387,-14.107,-1.815,43.053,-7.674,-39.440
-12.440,-10.539,-5.057,38.973,8.354,-20.264
-9.429,-5.765,-6.948,18.865,21.740,-3.672
-7.844,-3.548,-4.946,-3.750,9.947,2.720
-8.758,-3.668,-1.235,-16.067,-10.180,-0.738
-9.716,-4.511,0.618,-17.971,-16.359,-3.439
-10.425,-5.449,1.159,-15.251,-15.931,-5.731
-10.190,-6.096,1.293,-16.708,-11.424,-3.381
-9.213,-5.215,1.326,-21.235,-7.577,4.099
-9.213,-5.215,1.326,-21.235,-7.577,4.099
-7.542,-3.290,1.441,-22.925,-7.713,9.131
-6.771,-2.437,0.867,-17.175,-9.170,9.092
-6.929,-1.858,0.618,-15.018,-10.278,8.199
-7.714,-1.264,0.958,-16.592,-8.937,4.702
-8.150,-0.781,0.900,-15.854,-7.325,3.594
-7.743,-0.225,0.278,-13.814,-6.120,5.712
-7.839,-0.364,0.479,-16.572,-4.915,5.265
-7.604,1.173,0.895,-20.555,-0.097,4.041
-7.106,1.882,0.579,-16.708,-2.701,1.671
-7.073,1.868,0.527,-13.036,-7.946,-1.632
-7.073,1.868,0.527,-13.036,-7.946,-1.632
-7.092,2.112,1.528,-18.010,-6.994,-3.089
-7.288,3.060,1.887,-19.001,1.107,-5.770
-6.278,4.822,0.158,-11.346,1.651,-9.228
-6.752,3.462,1.063,-12.337,-0.661,-15.174
-9.156,2.835,1.609,-15.387,8.490,-24.499
-9.721,2.873,0.967,-12.939,15.096,-24.324
-8.863,2.945,0.426,-8.995,7.402,-19.254
-8.174,2.471,0.594,-6.373,2.584,-17.544
-10.290,1.403,1.178,-6.645,6.101,-22.615
-12.144,0.800,2.164,-11.793,11.735,-26.695
-12.273,0.819,2.375,-12.978,17.350,-21.876
-10.295,1.417,1.240,-6.470,17.194,-13.114
-9.869,1.460,0.809,-0.719,12.590,-10.647
-11.751,0.474,1.245,-1.399,8.587,-15.990
-12.747,0.239,1.815,-7.694,10.841,-18.515
-12.627,0.575,1.939,-8.840,15.310,-15.465
-11.009,1.676,0.637,-1.360,18.068,-7.732
-11.301,1.173,-0.263,6.800,12.162,-5.401
-12.421,0.402,0.010,4.935,6.003,-6.742
-13.120,0.675,0.747,1.069,4.216,-5.634
-12.110,0.771,0.929,0.758,6.237,-2.021
-12.110,0.771,0.929,0.758,6.237,-2.021
-9.816,2.193,-0.340,7.286,2.914,1.477
-9.553,1.868,-0.330,10.258,-5.770,-0.175
-9.352,1.700,0.201,8.315,-7.247,-2.778
-9.788,1.216,0.670,2.914,-2.409,-7.072
-10.209,1.269,0.872,-2.409,3.497,-9.500
-10.678,1.106,1.025,-1.904,4.235,-9.209
-10.678,1.106,1.025,-1.904,4.235,-9.209
-10.578,0.326,0.311,6.275,0.486,-3.594
-10.386,0.038,0.101,5.654,-0.486,-2.720
-10.128,-0.024,0.244,2.293,-1.166,-2.914
-9.912,-0.230,0.383,0.661,-1.010,-2.040
-9.500,-0.259,0.196,3.381,0.039,0.563
-9.160,-0.350,-0.455,6.373,0.194,2.040
-9.012,-0.412,-0.800,5.576,-0.622,1.865
-8.998,-0.441,-0.484,1.632,-0.699,0.175
-9.156,-0.737,-0.192,-1.088,0.408,-1.185
-9.462,-1.130,-0.034,-0.525,1.768,-0.544
-9.223,-1.106,-0.172,1.205,2.098,1.515
-9.041,-1.154,-0.326,2.603,0.408,2.681
-8.988,-1.240,-0.364,2.312,-0.389,2.759
-8.768,-1.183,-0.374,-0.078,1.379,1.923
-8.887,-1.408,-0.407,-0.641,2.681,0.835
-8.887,-1.408,-0.407,-0.641,2.681,0.835
-8.902,-1.451,-0.488,1.865,1.205,1.205
-8.902,-1.451,-0.488,1.865,1.205,1.205
-9.160,-1.575,-0.177,-0.835,1.787,0.233
-9.026,-1.393,-0.230,-0.719,2.312,0.525
-9.060,-1.441,-0.364,0.097,1.962,0.777
-9.036,-1.465,-0.383,0.797,1.904,0.719
-9.021,-1.465,-0.522,1.554,2.001,0.894
-8.830,-1.312,-0.599,1.107,1.729,1.166
-8.830,-1.312,-0.599,1.107,1.729,1.166
-9.156,-1.269,-0.364,-0.408,0.894,-0.039
-9.261,-1.274,-0.450,-0.330,2.021,0.194
-9.261,-1.274,-0.450,-0.330,2.021,0.194
-8.974,-1.250,-0.575,1.671,0.175,1.632
-8.907,-1.106,-0.488,1.515,-1.069,1.613
-8.897,-1.082,-0.498,0.563,-0.447,0.952
-8.849,-0.939,-0.421,-0.155,0.214,0.311
-8.868,-0.905,-0.474,0.194,0.214,-0.039
-9.045,-0.967,-0.397,0.311,-0.019,-0.175
-8.959,-0.833,-0.426,0.330,0.291,0.194
-9.069,-1.034,-0.479,0.330,-0.136,0.175
-9.069,-1.034,-0.479,0.330,-0.136,0.175
-9.156,-0.986,-0.484,-0.738,0.641,-0.330
-9.156,-1.140,-0.460,-0.369,0.369,0.350
-9.117,-1.030,-0.259,-0.563,0.680,0.602
-9.218,-1.154,-0.374,0.350,0.486,0.913
-9.055,-1.034,-0.374,0.039,0.758,1.321
-9.055,-1.034,-0.374,0.039,0.758,1.321
-9.017,-1.164,-0.364,-0.058,0.797,0.797
-8.978,-1.121,-0.378,0.330,0.661,1.069
-8.820,-0.924,-0.321,0.311,0.602,1.243
-8.859,-1.010,-0.412,0.777,0.486,0.758
-8.859,-1.010,-0.412,0.777,0.486,0.758

-8.203,10.185,4.817,1.243,-0.233,-27.433
-7.350,10.262,3.864,-0.641,11.035,-30.813
-6.005,9.821,2.399,-2.390,19.448,-35.651
-4.640,8.495,0.895,-0.563,20.672,-40.314
-3.390,7.307,0.115,-0.175,18.846,-46.142
-2.739,5.301,0.192,-0.641,14.163,-54.205
-2.739,5.301,0.192,-0.641,14.163,-54.205
-2.207,2.385,0.699,0.466,12.823,-60.286
0.445,-4.022,-0.335,13.367,15.718,-61.433
0.445,-4.022,-0.335,13.367,15.718,-61.433
3.223,-7.192,-1.121,16.456,9.326,-61.335
6.886,-16.659,-2.461,-1.671,19.215,-63.764
8.332,-18.651,-3.955,-13.639,45.132,-55.895
7.944,-20.332,-5.478,-3.109,46.997,-44.394
6.354,-22.151,-6.670,17.408,31.221,-39.051
3.649,-22.391,-7.839,28.929,24.771,-36.001
1.015,-21.424,-8.222,28.987,25.218,-29.687
-0.713,-19.925,-7.154,23.372,23.703,-15.718
-0.201,-18.704,-5.502,12.395,22.867,-0.466
-0.182,-17.373,-3.730,-1.496,22.673,3.750
-1.307,-18.134,-2.083,-4.546,12.046,-2.409
-3.074,-18.531,-0.828,-4.741,5.673,-4.469
-4.520,-18.388,-0.680,-3.672,6.489,-0.291
-4.578,-18.187,-1.504,-0.486,6.819,6.392
-3.716,-17.119,-2.777,1.379,4.061,12.434
-2.945,-16.788,-3.443,4.371,-4.799,14.532
-2.796,-16.865,-3.520,4.877,-18.496,13.580
-1.642,-16.410,-3.448,2.079,-25.451,16.514
-0.057,-15.658,-3.069,-1.399,-26.675,22.284
1.101,-14.772,-3.366,-1.457,-25.995,25.490
2.231,-13.532,-3.591,-4.721,-21.779,26.578
2.528,-11.880,-3.285,-11.657,-21.682,26.520
1.968,-10.999,-2.442,-14.532,-25.626,24.499
1.968,-10.999,-2.442,-14.532,-25.626,24.499
-0.292,-10.089,-1.537,-9.423,-21.352,24.888
-1.307,-9.663,-1.441,-7.091,-18.457,26.772
-1.930,-8.840,-1.451,-7.888,-17.913,29.220
-2.433,-8.251,-0.977,-12.162,-15.795,31.746
-1.657,-6.790,-1.073,-11.210,-11.968,34.660
-2.241,-5.823,-1.470,-5.343,-14.552,35.612
-2.284,-4.942,-1.729,-6.761,-8.995,35.224
-3.165,-3.874,-1.346,-10.627,-2.351,32.892
-3.165,-3.874,-1.346,-10.627,-2.351,32.892
-5.512,-1.954,0.326,-5.945,-7.461,32.931
-6.838,-0.910,-0.148,-2.137,-0.058,32.698
-7.800,0.441,-0.891,-2.215,5.304,32.037
-8.207,1.111,-0.589,-0.544,-0.835,32.348
-8.638,1.053,-0.311,4.682,-8.918,32.873
-8.442,1.341,0.163,4.546,-4.488,31.843
-9.208,1.714,0.383,4.682,-0.466,29.317
-9.314,2.423,0.804,3.361,1.399,28.191
-8.959,2.696,0.469,2.623,4.799,25.451
-8.959,2.696,0.469,2.623,4.799,25.451
-8.198,2.859,0.330,8.412,-0.233,24.577
-8.198,2.859,0.330,8.412,-0.233,24.577
-8.131,2.509,0.125,2.837,2.331,13.930
-8.500,2.255,0.675,-1.690,3.478,9.559
-8.820,1.978,1.044,-0.330,1.885,8.296
-8.533,1.772,1.001,1.205,-0.408,8.432
-8.710,1.317,0.833,0.797,-0.758,4.702
-9.275,0.958,0.709,-1.690,1.885,0.525
-9.481,0.397,0.244,-0.758,4.779,-0.369
-9.481,0.397,0.244,-0.758,4.779,-0.369
-9.098,-0.225,-1.034,1.962,1.282,2.856
-8.931,-0.522,-0.996,1.360,-1.457,2.856
-8.998,-0.536,-0.857,1.088,-2.973,1.729
-8.998,-0.536,-0.857,1.088,-2.973,1.729
-9.089,-1.025,-0.675,-0.389,1.496,-0.311
-9.170,-1.235,-0.670,-0.175,2.273,-0.078
-8.988,-1.111,-0.699,0.486,0.758,0.738
-8.883,-1.125,-0.632,0.738,-1.302,0.952
-8.758,-1.221,-0.627,0.699,-0.525,0.019
-8.816,-1.312,-0.977,1.030,1.010,-0.758
-8.696,-1.460,-1.116,0.622,0.563,-0.933
-8.763,-1.590,-1.216,-0.525,-0.078,-1.360
-8.777,-1.638,-1.279,-1.321,0.544,-1.613
-8.964,-1.757,-1.192,-0.971,0.194,-1.399
-9.021,-1.681,-1.164,-0.175,0.058,-0.583
-9.074,-1.753,-0.991,-0.233,-0.758,0.253
-8.983,-1.633,-0.785,-0.758,0.311,0.641
-8.983,-1.633,-0.785,-0.758,0.311,0.641
-8.916,-1.853,-1.178,1.088,2.526,1.457
-8.916,-1.853,-1.178,1.088,2.526,1.457
-8.485,-1.676,-1.451,0.175,1.729,1.496
-8.547,-1.781,-1.231,-0.525,0.816,0.427
-8.653,-1.800,-1.154,-1.205,1.399,-0.194
-8.682,-1.676,-1.111,-0.933,1.613,-0.117
-8.729,-1.595,-0.958,-0.350,0.563,0.019
-8.768,-1.494,-0.910,-0.117,0.350,-0.253
-8.792,-1.561,-0.828,-0.369,0.583,-0.855
-8.892,-1.690,-1.068,0.117,1.496,-1.341
-8.811,-1.700,-1.259,0.699,1.613,-1.107
-8.753,-1.671,-1.422,0.952,1.049,-0.835
-8.768,-1.614,-1.575,0.544,1.010,-0.913
-8.753,-1.585,-1.365,-0.466,1.243,-1.185
-8.911,-1.642,-1.231,-0.117,0.699,-1.379
-8.911,-1.642,-1.231,-0.117,0.699,-1.379
-9.079,-1.777,-1.044,0.253,-0.097,-1.282
-8.935,-1.805,-1.288,-0.350,1.360,-0.253
-8.768,-1.686,-1.298,-0.058,0.622,0.117
-8.768,-1.686,-1.298,-0.058,0.622,0.117
-8.705,-1.446,-1.274,0.505,0.505,0.233
-8.725,-1.389,-1.144,-0.525,0.563,-0.505
-8.830,-1.547,-1.125,-0.758,0.583,-0.991
-8.820,-1.619,-1.226,-0.758,1.282,-0.952
-8.758,-1.724,-1.451,-0.136,0.622,-0.971
-8.897,-1.834,-1.374,-0.350,-0.427,-1.069
-8.950,-1.863,-1.173,-1.263,0.058,-1.224
-8.931,-1.848,-1.101,-1.477,0.136,-1.127
-8.830,-1.767,-0.986,-1.438,-0.078,-0.738
-8.844,-1.810,-1.001,-0.505,-0.039,-0.525
-8.801,-1.863,-1.188,0.563,0.350,0.039
-8.777,-1.887,-1.183,0.525,0.039,0.214
-8.571,-1.815,-1.192,-0.525,0.097,0.019
-8.471,-1.676,-1.264,-0.563,0.117,-0.389
-8.471,-1.676,-1.264,-0.563,0.117,-0.389
-8.614,-1.571,-1.058,-0.991,0.797,-1.263
-8.811,-1.633,-1.068,-0.699,0.933,-1.418
-8.940,-1.743,-1.197,-0.777,1.263,-1.302

-10.468,8.662,4.458,28.074,10.977,1.768
-8.777,6.766,3.271,39.945,12.803,-4.702
-6.886,4.032,2.926,48.765,9.850,-10.550
-5.392,0.139,2.825,56.459,8.004,-16.747
-4.760,-3.893,3.587,65.377,6.586,-15.776
-4.137,-7.599,3.132,74.547,5.071,-8.568
-4.137,-7.599,3.132,74.547,5.071,-8.568
-1.915,-12.723,3.769,70.447,8.160,-12.862
-1.915,-12.723,3.769,70.447,8.160,-12.862
-3.572,-17.717,4.765,69.709,8.160,-19.292
-3.572,-17.717,4.765,69.709,8.160,-19.292
-5.018,-20.260,2.605,69.670,25.393,-18.807
-4.425,-18.278,-1.561,60.772,42.432,-18.030
-4.607,-16.769,-4.046,45.734,46.686,-16.242
-7.211,-16.190,-3.850,30.911,33.125,-15.698
-7.211,-16.190,-3.850,30.911,33.125,-15.698
-7.168,-11.535,-0.867,1.127,-1.846,6.800
-7.144,-9.869,0.867,-5.090,-16.145,14.727
-6.527,-8.447,1.259,-7.985,-16.436,14.999
-7.073,-8.088,0.828,-7.363,-13.561,9.345
-7.676,-8.155,0.790,-9.151,-7.849,3.011
-7.676,-8.155,0.790,-9.151,-7.849,3.011
-8.830,-9.342,1.111,-12.531,-7.538,-0.583
-8.830,-9.342,1.111,-12.531,-7.538,-0.583
-7.389,-8.576,0.187,-15.038,-3.808,2.739
-5.124,-8.155,-2.049,-16.534,-18.030,8.976
-5.693,-8.840,-0.967,-22.187,-25.063,7.810
-6.551,-9.419,0.589,-28.929,-25.626,5.537
-6.077,-8.595,0.680,-32.640,-20.186,7.752
-5.061,-7.480,0.287,-35.224,-18.107,11.191
-4.741,-6.685,0.733,-38.565,-19.098,11.482
-5.215,-6.206,1.777,-40.294,-16.883,8.762
-5.770,-5.105,1.322,-39.109,-12.609,6.839
-5.449,-4.396,0.402,-37.477,-10.239,6.431
-5.306,-3.630,-0.297,-36.700,-13.075,7.616
-5.248,-2.658,0.211,-38.216,-16.203,9.248
-6.033,-2.389,1.073,-38.060,-17.136,6.858
-7.173,-1.518,0.804,-37.322,-9.442,0.466
-7.173,-1.518,0.804,-37.322,-9.442,0.466
-9.352,-0.096,-0.675,-31.707,10.316,-8.082
-9.955,0.565,-0.910,-29.589,2.856,-5.149
-10.764,0.230,0.043,-27.569,-4.566,-1.496
-11.646,0.800,0.886,-24.635,0.855,-0.680
-11.646,0.800,0.886,-24.635,0.855,-0.680
-10.535,0.728,-1.312,-14.532,17.622,-3.206
-10.094,0.354,-2.423,-12.065,14.591,-2.914
-10.003,1.010,-2.351,-10.822,8.393,-2.351
-11.100,0.522,-0.599,-9.539,-0.661,-2.312
-11.780,0.283,0.474,-8.684,-0.855,-0.991
-10.875,0.570,0.541,-9.287,4.643,1.263
-10.300,0.996,-0.168,-7.480,5.071,2.759
-9.869,1.312,-0.163,-6.606,1.807,4.896
-9.457,1.149,0.239,-3.983,-2.331,6.975
-8.998,0.982,-0.115,-1.904,-0.835,7.014
-8.571,1.140,-0.833,-1.671,3.322,4.080
-8.883,0.694,-1.652,-2.623,5.887,0.155
-9.472,0.115,-2.423,-1.749,9.151,-2.234
-9.610,-0.498,-3.294,0.505,8.393,-1.496
-9.673,-1.149,-3.582,0.544,5.809,-0.058
-9.290,-1.106,-3.448,-2.254,4.488,0.505
-9.290,-1.106,-3.448,-2.254,4.488,0.505
-8.873,-1.087,-2.241,-6.295,0.233,0.602
-9.060,-1.379,-1.906,-5.187,0.272,0.311
-9.060,-1.379,-1.906,-5.187,0.272,0.311
-9.093,-1.365,-1.599,-2.234,1.107,2.040
-9.093,-1.365,-1.599,-2.234,1.107,2.040
-8.337,-1.523,-2.145,0.330,1.496,3.342
-8.188,-1.475,-2.437,0.408,2.837,2.506
-8.160,-1.642,-2.576,0.835,1.846,2.157
-8.112,-1.542,-2.667,1.768,0.389,2.390
-8.035,-1.609,-2.495,2.079,-0.991,2.370
-8.035,-1.609,-2.495,2.079,-0.991,2.370
-8.035,-1.738,-2.600,-0.272,0.991,-0.583
-8.035,-1.738,-2.600,-0.272,0.991,-0.583
-8.586,-1.935,-2.207,-0.933,0.447,-1.768
-8.586,-1.935,-2.207,-0.933,0.447,-1.768
-8.605,-1.982,-2.385,2.098,1.632,0.369
-8.471,-2.164,-2.777,1.457,3.167,-0.369
-8.231,-2.136,-2.892,0.097,2.565,-0.563
-8.231,-2.136,-2.892,0.097,2.565,-0.563
-8.107,-2.212,-2.739,1.205,0.699,0.874
-8.107,-2.212,-2.739,1.205,0.699,0.874
-8.212,-2.011,-2.624,1.010,2.312,0.311
-8.069,-2.064,-2.691,0.389,1.107,-0.039
-8.093,-2.255,-2.926,-0.214,1.341,-0.913
-8.164,-2.361,-2.916,-0.622,2.409,-1.321
-8.097,-2.342,-3.079,0.602,2.059,-0.602
-8.078,-2.131,-2.993,0.661,0.777,-0.058
-8.016,-2.002,-2.835,-0.272,0.622,-0.719
-8.174,-2.093,-2.854,-0.583,1.088,-1.438
-8.279,-2.169,-2.796,-0.738,2.215,-1.904
-8.356,-2.164,-2.610,0.913,1.651,-1.088
-8.365,-2.203,-2.768,2.351,0.719,-0.097
-8.365,-2.298,-2.916,1.263,1.049,-0.525
-8.476,-2.236,-2.887,-0.369,1.923,-1.302
-8.456,-2.198,-2.672,-0.952,2.001,-1.263
-8.351,-2.073,-2.624,-0.039,1.360,-0.369
-8.298,-1.958,-2.428,1.088,0.389,0.525
-8.279,-1.958,-2.519,2.137,0.855,0.641
-8.279,-1.958,-2.519,2.137,0.855,0.641
-8.274,-2.313,-3.036,1.243,2.973,-0.894
-8.217,-2.404,-3.213,1.205,2.429,-0.602
-8.236,-2.322,-3.151,0.971,0.855,0.194
-8.236,-2.322,-3.151,0.971,0.855,0.194
-8.332,-1.896,-2.509,0.291,0.952,0.117
-8.298,-1.815,-2.423,0.913,1.127,0.078
-8.227,-1.824,-2.485,0.894,1.613,-0.389
-8.313,-2.078,-2.629,0.991,2.040,-0.797
-8.313,-2.078,-2.629,0.991,2.040,-0.797
-8.552,-2.107,-2.993,1.807,1.399,0.194
-8.543,-2.212,-3.002,1.302,0.991,0.291
-8.476,-2.284,-2.993,0.758,1.224,0.214
-8.476,-2.284,-2.993,0.758,1.224,0.214
-8.332,-2.298,-2.897,1.496,1.574,1.418
-8.174,-2.121,-2.782,1.593,0.622,2.040
-8.097,-2.083,-2.667,1.205,0.155,1.787
-8.174,-2.193,-2.811,0.874,1.069,0.933
-8.136,-2.255,-2.844,0.583,2.215,0.369
-8.136,-2.255,-2.844,0.583,2.215,0.369

-13.973,7.949,-2.624,-12.337,-8.121,14.260
-13.288,9.342,-2.375,-16.592,-13.755,13.561
-11.904,9.591,-1.240,-21.410,-18.185,11.579
-10.822,8.907,0.421,-24.849,-17.408,8.937
-9.103,8.753,0.996,-22.148,-10.219,8.024
-7.092,8.346,-0.096,-15.038,-3.439,6.217
-5.229,6.603,-2.351,-16.164,-7.480,2.157
-3.615,3.812,-1.446,-33.553,-25.140,-7.771
-3.318,-0.579,0.843,-61.841,-24.732,-22.090
