aX,aY,aZ,gX,gY,gZ
1.305,0.267,1.485,33.997,-19.836,4.578
1.399,0.320,1.609,35.950,-12.085,2.869
1.791,0.395,1.642,44.067,-3.723,0.366
1.927,0.474,1.795,37.964,-7.568,1.038
1.955,0.542,1.947,30.762,-7.080,-0.549
1.817,0.605,2.063,22.034,3.235,-0.183
1.678,0.686,2.110,9.155,23.560,1.709
1.488,0.835,2.118,0.000,51.147,10.620
1.350,1.009,2.006,-14.832,81.299,17.761
1.232,1.175,1.808,-19.592,116.089,16.968
1.042,1.285,1.596,-16.418,151.917,4.822
1.142,1.301,1.273,5.981,190.918,-23.315
1.071,1.149,1.019,31.250,220.947,-65.063
0.908,0.809,0.767,63.843,250.183,-116.821
0.668,0.382,0.505,96.008,278.381,-157.715
0.371,-0.039,0.221,115.356,298.584,-177.185
0.182,-0.393,-0.102,122.803,304.687,-169.006
-0.005,-0.637,-0.416,117.310,288.330,-136.292
-0.288,-0.773,-0.682,102.051,248.230,-88.745
-0.369,-0.745,-0.873,79.651,181.396,-27.771
-0.490,-0.518,-0.884,53.040,89.294,41.382
-0.437,-0.170,-0.676,34.363,-5.493,92.468
-0.251,0.040,-0.286,35.522,-91.553,98.083
-0.482,-0.051,0.253,43.579,-166.748,57.068
-0.826,-0.334,0.742,58.594,-204.895,3.723
-0.912,-0.656,1.052,80.200,-191.956,-33.936
-1.035,-0.973,1.241,99.976,-160.950,-51.636
-1.241,-1.216,1.356,105.835,-128.479,-46.997
-1.398,-1.375,1.287,109.436,-84.473,-24.841
-1.564,-1.405,1.101,115.051,-42.053,11.841
-1.729,-1.262,0.869,114.868,-20.935,58.228
-1.818,-0.952,0.703,107.727,-20.691,101.990
-1.743,-0.593,0.650,93.933,-40.466,129.700
-1.818,-0.297,0.752,72.937,-81.055,133.057
-1.642,-0.128,0.972,47.791,-129.395,112.061
-1.561,-0.218,1.192,25.513,-165.955,65.796
-1.325,-0.492,1.398,3.479,-196.594,21.545
-1.288,-0.758,1.656,-28.809,-232.422,10.559
-1.314,-0.775,1.990,-71.228,-263.489,51.514
-1.301,-0.491,2.286,-102.112,-265.137,125.061
-1.322,0.025,2.475,-119.568,-232.422,202.515
-1.250,0.659,2.508,-118.408,-169.495,258.728
-1.116,1.278,2.411,-96.558,-86.365,273.682
-0.740,1.772,2.156,-55.786,7.874,234.741
-0.372,1.966,1.803,-6.531,94.360,134.460
-0.222,1.722,1.376,26.245,152.344,-7.263
-0.179,1.071,0.990,40.771,185.059,-151.550
-0.317,0.244,0.693,39.551,201.904,-273.010
-0.496,-0.582,0.428,41.504,205.872,-347.473
-0.573,-1.289,0.188,44.800,200.256,-362.244
-0.510,-1.788,-0.042,49.622,187.805,-322.144
-0.384,-2.043,-0.235,53.833,163.818,-241.882
-0.307,-2.042,-0.347,52.551,122.742,-137.573
-0.262,-1.720,-0.336,46.753,65.918,-24.780
-0.260,-1.150,-0.111,34.790,2.136,73.975
-0.232,-0.577,0.220,24.414,-59.387,138.672
-0.245,-0.072,0.629,12.634,-113.831,167.480
-0.210,0.333,1.051,0.183,-150.696,163.086
-0.186,0.599,1.459,-12.939,-165.161,130.127
-0.211,0.698,1.806,-26.001,-157.776,76.477
-0.264,0.609,2.052,-35.278,-126.404,11.230
-0.332,0.345,2.154,-35.889,-74.158,-53.040
-0.373,-0.036,2.044,-24.414,-8.423,-103.577
-0.435,-0.391,1.757,-4.700,57.007,-129.150
-0.445,-0.628,1.387,14.343,110.107,-128.540
-0.433,-0.765,1.002,28.198,144.836,-109.985
-0.435,-0.825,0.635,35.095,160.278,-82.947
-0.427,-0.773,0.338,36.865,150.818,-47.058
-0.418,-0.593,0.180,29.846,114.380,-6.226
-0.427,-0.322,0.207,12.390,60.242,27.649
-0.448,-0.058,0.400,-11.292,3.601,43.457
-0.411,0.132,0.666,-30.823,-42.480,39.795
-0.424,0.213,0.963,-50.171,-75.439,19.470
-0.447,0.180,1.230,-66.162,-90.820,-10.193
-0.443,0.074,1.463,-75.867,-89.294,-38.208
-0.427,-0.061,1.631,-76.416,-71.594,-58.899
-0.405,-0.206,1.714,-60.608,-36.926,-74.036
-0.381,-0.341,1.669,-32.043,9.949,-81.848
-0.319,-0.457,1.458,-5.676,60.730,-81.909
-0.248,-0.493,1.144,9.094,102.661,-72.021
-0.207,-0.452,0.843,13.367,126.709,-54.382
-0.192,-0.348,0.598,10.864,131.958,-34.973
-0.137,-0.220,0.408,3.662,123.352,-19.714
-0.104,-0.097,0.299,-7.202,101.074,-11.353
-0.096,0.011,0.279,-21.484,67.017,-10.559
-0.094,0.093,0.343,-37.964,29.297,-15.259
-0.022,0.140,0.466,-56.519,-4.211,-25.391
0.052,0.131,0.633,-72.388,-29.236,-39.612
0.104,0.050,0.827,-77.637,-45.776,-58.472
0.168,-0.096,0.957,-66.345,-46.143,-78.857
0.203,-0.271,1.037,-47.302,-35.095,-93.018
0.181,-0.425,1.082,-26.062,-19.958,-94.543
0.198,-0.494,1.073,-10.376,-2.258,-80.811
0.179,-0.440,1.015,-10.559,11.658,-55.115
0.133,-0.286,0.927,-20.569,19.043,-27.222
0.086,-0.083,0.813,-36.316,21.423,-4.639
0.085,0.116,0.720,-57.373,20.996,8.423
0.156,0.270,0.647,-64.636,15.076,8.789
0.278,0.336,0.596,-73.425,4.211,-4.395
0.320,0.248,0.611,-79.834,-10.620,-29.175
0.388,0.056,0.698,-83.069,-30.334,-54.932
0.336,-0.172,0.849,-81.665,-47.913,-71.228
0.304,-0.365,0.963,-70.618,-50.232,-73.608
0.338,-0.480,1.027,-58.105,-40.527,-59.021
0.350,-0.491,1.109,-51.270,-29.724,-32.227
0.355,-0.405,1.169,-41.626,-17.395,-2.869
0.287,-0.258,1.181,-31.311,-1.465,20.996
0.239,-0.089,1.097,-23.132,19.287,37.354
0.237,0.021,0.887,-15.747,44.312,43.152
0.288,0.107,0.661,-9.766,60.486,43.640
0.339,0.180,0.499,-5.249,59.692,43.213
0.367,0.211,0.407,-3.784,46.753,37.048
0.396,0.182,0.373,-2.747,28.748,26.184
0.392,0.104,0.400,-2.014,8.728,16.846
0.392,0.021,0.504,-5.066,-11.108,13.916
0.385,-0.018,0.668,-10.315,-29.053,19.043
0.368,-0.016,0.830,-12.329,-39.307,26.794
0.390,0.007,0.949,-10.864,-40.344,33.142
0.412,0.032,1.032,-8.240,-36.194,36.865

-1.934,0.276,-0.268,33.264,24.170,-65.247
-1.971,0.212,-0.255,5.554,-4.333,-29.297
-1.915,0.341,-0.155,-32.593,-34.180,28.381
-1.851,0.624,0.021,-71.045,-58.594,90.149
-1.785,0.943,0.212,-100.403,-71.289,138.184
-1.683,1.236,0.390,-118.225,-67.139,165.466
-1.572,1.484,0.482,-118.042,-39.001,170.349
-1.400,1.670,0.384,-92.712,15.625,156.189
-1.250,1.714,0.097,-49.866,80.811,118.896
-1.177,1.603,-0.324,-0.854,137.146,68.970
-1.105,1.435,-0.726,33.142,166.687,24.475
-0.985,1.261,-1.025,46.814,157.043,-8.240
-0.914,1.073,-1.175,44.739,106.689,-31.311
-0.853,0.926,-1.116,27.954,28.320,-38.086
-0.755,0.850,-0.812,2.014,-56.641,-29.968
-0.642,0.811,-0.356,-22.705,-125.305,-23.682
-0.594,0.746,0.072,-31.067,-165.100,-26.550
-0.523,0.642,0.430,-31.250,-174.011,-33.203
-0.472,0.531,0.682,-30.579,-155.579,-35.156
-0.456,0.471,0.816,-31.738,-114.685,-25.085
-0.439,0.511,0.816,-25.452,-60.852,-2.380
-0.456,0.667,0.647,-22.888,-5.981,25.269
-0.516,0.864,0.385,-23.193,40.466,48.218
-0.536,1.057,0.079,-28.015,75.500,60.791
-0.557,1.192,-0.236,-33.203,100.098,57.007
-0.572,1.235,-0.539,-32.166,112.854,36.804
-0.567,1.193,-0.806,-19.287,111.755,7.874
-0.574,1.082,-0.991,0.183,91.736,-21.545
-0.576,0.922,-1.045,16.541,53.284,-45.288
-0.553,0.747,-0.965,22.156,5.371,-57.800
-0.561,0.587,-0.756,16.296,-38.757,-57.678
-0.546,0.494,-0.482,5.249,-71.228,-46.692
-0.548,0.478,-0.207,-1.404,-89.050,-28.015
-0.569,0.527,0.005,-2.869,-88.623,-7.019
-0.576,0.659,0.113,-5.066,-70.923,14.526
-0.520,0.830,0.120,-8.789,-46.753,30.762
-0.434,0.972,0.087,-18.188,-27.100,33.997
-0.389,1.047,0.031,-24.414,-12.878,25.146
-0.365,1.020,-0.041,-20.935,-1.343,5.859
-0.357,0.900,-0.110,-8.423,6.836,-14.404
-0.388,0.749,-0.181,8.606,16.052,-28.809
-0.399,0.609,-0.320,29.846,29.663,-35.461
-0.469,0.527,-0.495,40.649,42.908,-32.166
-0.480,0.534,-0.672,40.100,47.058,-17.273
-0.460,0.589,-0.785,30.640,33.569,0.488
-0.418,0.643,-0.790,17.578,3.967,11.719
-0.321,0.694,-0.713,1.038,-29.236,19.226
-0.271,0.787,-0.498,-12.512,-59.631,29.358
-0.264,0.897,-0.287,-18.799,-80.933,39.795
-0.266,1.007,-0.101,-18.982,-82.886,43.945
-0.291,1.092,-0.007,-0.977,-71.289,39.185
-0.285,1.165,0.050,8.301,-52.124,29.724
-0.309,1.196,0.018,10.498,-30.640,16.235
-0.304,1.150,-0.068,6.531,-16.907,-1.099
-0.290,1.011,-0.192,-5.981,-8.484,-20.142
-0.193,0.864,-0.225,-10.193,-7.446,-32.898
-0.200,0.746,-0.282,-13.550,-11.047,-35.034
-0.225,0.642,-0.299,-30.334,-18.738,-30.029
-0.275,0.611,-0.258,-25.574,-24.780,-15.198
-0.216,0.721,-0.211,-23.010,-20.020,6.836
-0.258,0.857,-0.276,-11.780,-3.540,21.484
-0.267,1.028,-0.417,23.132,13.306,30.396
-0.333,1.128,-0.530,24.597,26.306,25.513
-0.333,1.161,-0.627,29.907,30.640,7.935
-0.308,1.095,-0.710,32.349,24.719,-14.038
-0.291,0.948,-0.765,33.508,13.489,-37.476
-0.158,0.803,-0.749,28.137,-3.906,-50.171
-0.159,0.646,-0.713,24.475,-30.640,-52.307
-0.173,0.523,-0.557,-3.052,-59.265,-40.344
-0.166,0.526,-0.367,-11.963,-72.998,-15.869
-0.135,0.680,-0.212,-10.010,-74.402,17.822
-0.135,0.885,-0.102,-0.793,-70.557,41.931
-0.148,1.060,-0.015,3.357,-63.049,50.720
-0.257,1.144,-0.027,14.465,-46.631,46.936
-0.073,1.238,-0.054,18.555,-29.236,37.659
-0.138,1.169,-0.167,-5.432,-14.526,15.015
-0.128,1.074,-0.260,-9.827,-11.169,-1.160
-0.107,0.984,-0.296,-17.578,-16.785,-5.676
-0.049,0.952,-0.253,-27.771,-27.832,-1.953
-0.111,0.940,-0.095,-23.071,-39.307,7.507
0.035,1.114,0.027,10.803,-44.983,22.583
-0.005,1.194,0.060,-11.353,-34.424,20.081
0.016,1.227,0.054,-10.010,-14.404,3.723
-0.098,1.113,-0.067,15.198,6.714,-12.512
0.093,1.108,-0.143,46.326,24.536,-21.851
0.037,0.977,-0.291,30.579,40.100,-39.246
0.059,0.855,-0.437,21.484,45.227,-51.575
-0.029,0.750,-0.489,25.879,35.400,-45.410
0.147,0.846,-0.470,45.471,10.071,-24.719
0.187,0.927,-0.359,16.052,-18.616,-11.414
0.263,0.969,-0.108,5.432,-43.945,-13.672
0.189,1.033,0.066,26.978,-63.110,-7.385
0.302,1.109,0.274,6.653,-70.374,-3.662
0.254,1.074,0.434,-16.174,-54.871,-19.531
0.252,0.986,0.516,-11.597,-24.109,-30.518
0.350,0.943,0.406,21.545,15.137,-36.011
0.311,0.790,0.193,15.320,55.847,-46.997
0.251,0.675,-0.046,16.541,86.670,-53.528
0.219,0.628,-0.272,23.376,104.675,-41.931
0.166,0.611,-0.483,30.151,111.084,-26.733
0.202,0.696,-0.620,30.823,100.830,-2.930
-0.013,0.739,-0.670,35.828,71.838,18.677
0.202,1.005,-0.530,28.137,35.950,44.617
0.023,1.093,-0.410,-4.333,15.747,45.532
0.063,1.220,-0.351,-13.550,8.118,43.274
0.038,1.280,-0.304,-12.390,7.996,34.241
0.016,1.295,-0.261,-8.728,8.484,18.555
-0.008,1.254,-0.215,-8.667,9.949,1.587
-0.009,1.173,-0.200,-2.747,15.747,-14.465
-0.019,1.047,-0.241,8.728,24.475,-28.198
0.003,0.918,-0.274,15.869,28.992,-37.659
-0.095,0.776,-0.346,30.212,28.564,-38.879
-0.012,0.705,-0.322,20.142,26.123,-30.823
-0.079,0.661,-0.334,11.963,28.320,-25.452
-0.056,0.688,-0.383,10.559,29.724,-8.423
-0.039,0.750,-0.420,7.751,26.611,5.615
-0.033,0.817,-0.419,5.127,17.395,15.442
-0.037,0.890,-0.365,0.366,4.089,22.522
-0.062,0.962,-0.266,-5.615,-8.667,27.466

-2.143,-0.308,-0.702,11.169,110.840,-35.278
-2.358,-0.251,-1.024,65.369,166.321,-22.766
-2.510,-0.087,-1.386,109.253,212.891,-5.127
-2.605,0.184,-1.729,126.587,229.309,17.456
-2.414,0.524,-1.963,106.995,207.397,39.978
-2.169,0.811,-2.002,39.124,144.470,40.955
-1.948,0.874,-1.889,-44.800,65.918,3.479
-1.701,0.469,-1.657,-103.149,-3.967,-80.322
-1.471,-0.200,-1.395,-116.394,-60.120,-181.702
-1.363,-0.927,-1.081,-89.233,-107.849,-262.512
-1.173,-1.542,-0.743,-35.889,-154.053,-288.940
-0.980,-1.901,-0.325,15.198,-200.867,-241.577
-0.799,-1.877,0.180,47.180,-241.455,-128.662
-0.651,-1.449,0.693,50.537,-255.127,15.930
-0.579,-0.788,1.085,35.339,-227.661,146.484
-0.553,-0.066,1.249,20.020,-151.855,233.215
-0.552,0.591,1.116,13.428,-36.926,265.808
-0.607,1.071,0.681,15.381,94.055,248.352
-0.681,1.303,0.019,22.034,211.731,191.162
-0.795,1.276,-0.730,31.189,292.419,111.145
-0.800,1.053,-1.430,36.804,324.890,26.611
-0.804,0.729,-1.959,42.114,304.504,-42.725
-0.816,0.375,-2.294,39.795,237.732,-85.632
-0.685,0.056,-2.415,28.748,138.855,-99.792
-0.625,-0.223,-2.231,13.733,24.536,-94.360
-0.601,-0.400,-1.747,-1.404,-85.083,-72.083
-0.631,-0.427,-1.137,-14.221,-167.542,-39.795
-0.603,-0.365,-0.599,-16.479,-202.026,-8.179
-0.607,-0.281,-0.225,-11.108,-185.547,16.602
-0.622,-0.167,-0.066,-2.258,-129.822,35.828
-0.648,-0.006,-0.138,3.296,-52.856,51.880
-0.705,0.136,-0.450,11.414,22.705,57.068
-0.774,0.208,-0.869,20.203,79.590,50.537
-0.823,0.214,-1.272,24.231,106.873,35.950
-0.851,0.151,-1.594,23.254,101.990,17.212
-0.870,0.054,-1.778,19.226,67.627,0.793
-0.849,-0.032,-1.802,14.038,13.550,-6.226
-0.790,-0.099,-1.653,9.827,-44.128,-5.188
-0.763,-0.123,-1.344,8.057,-95.337,-1.648
-0.752,-0.095,-0.995,14.526,-132.385,2.869
-0.736,-0.038,-0.655,23.804,-152.954,7.996
-0.677,0.008,-0.374,28.381,-154.114,10.559
-0.615,0.026,-0.211,23.376,-132.324,9.521
-0.568,0.000,-0.133,12.329,-96.924,5.859
-0.556,-0.047,-0.149,4.639,-60.486,3.906
-0.550,-0.069,-0.260,3.052,-25.024,8.179
-0.529,-0.049,-0.469,5.432,7.324,15.015
-0.585,-0.005,-0.698,12.390,32.349,21.240
-0.666,0.070,-0.935,25.391,48.279,26.978
-0.681,0.197,-1.151,37.476,51.575,33.264
-0.658,0.330,-1.297,48.035,38.635,32.776
-0.606,0.420,-1.362,56.274,9.949,20.386
-0.549,0.389,-1.305,52.246,-26.917,-3.906
-0.476,0.197,-1.137,38.391,-63.904,-32.471
-0.394,-0.053,-0.931,24.414,-92.285,-53.833
-0.335,-0.275,-0.736,11.536,-105.835,-57.861
-0.317,-0.419,-0.579,1.343,-102.844,-42.847
-0.327,-0.443,-0.492,-0.061,-84.839,-12.695
-0.339,-0.276,-0.501,9.216,-54.871,27.344
-0.421,0.017,-0.616,27.649,-22.583,62.988
-0.432,0.341,-0.801,48.462,3.601,84.473
-0.402,0.620,-0.962,58.594,14.954,86.914
-0.332,0.784,-1.091,58.777,13.672,65.002
-0.239,0.783,-1.193,59.631,2.625,22.278
-0.180,0.585,-1.213,53.955,-18.127,-24.475
-0.184,0.280,-1.139,48.462,-41.565,-61.584
-0.198,-0.009,-1.025,49.072,-58.472,-80.139
-0.201,-0.202,-0.915,56.030,-65.674,-75.684
-0.211,-0.280,-0.842,64.758,-62.439,-52.979
-0.197,-0.250,-0.802,62.927,-53.284,-21.729
-0.168,-0.140,-0.757,50.415,-46.387,8.301
-0.163,0.023,-0.728,35.706,-39.856,33.020
-0.169,0.231,-0.743,30.762,-30.823,52.063
-0.164,0.426,-0.774,33.081,-20.996,59.814
-0.148,0.574,-0.815,34.180,-13.367,55.725
-0.146,0.633,-0.878,34.607,-6.165,37.659
-0.153,0.591,-0.968,35.461,0.061,12.695
-0.142,0.494,-1.023,34.729,-1.221,-7.507
-0.131,0.374,-1.018,33.813,-9.521,-19.958
-0.138,0.246,-1.008,32.959,-15.076,-26.917
-0.165,0.139,-0.989,27.222,-19.165,-26.550
-0.142,0.095,-0.953,18.799,-22.705,-17.151
-0.100,0.145,-0.891,14.893,-26.978,-1.648
-0.088,0.256,-0.821,15.137,-28.931,11.719
-0.091,0.377,-0.773,17.944,-26.306,18.433
-0.085,0.491,-0.744,18.250,-21.057,20.630
-0.052,0.585,-0.718,15.625,-17.639,19.104
-0.011,0.626,-0.686,12.451,-15.076,9.949
-0.008,0.590,-0.663,9.521,-10.681,-5.615
-0.000,0.491,-0.654,3.845,-3.845,-20.752
0.020,0.359,-0.658,-0.610,2.502,-30.701
0.023,0.216,-0.678,-2.686,10.071,-36.865
0.021,0.099,-0.737,-1.404,21.240,-36.621
0.026,0.044,-0.833,1.221,31.982,-26.611
0.020,0.064,-0.919,-1.892,36.316,-10.193
-0.002,0.159,-0.962,-8.789,33.325,7.935
0.018,0.304,-0.987,-14.832,29.724,24.109
0.029,0.462,-0.997,-16.479,26.611,33.569
0.045,0.597,-1.001,-14.099,23.376,34.607
0.072,0.690,-1.008,-13.672,19.775,28.564
0.103,0.723,-0.980,-19.836,13.428,16.724
0.156,0.717,-0.921,-27.527,4.333,2.380
0.183,0.619,-0.837,-27.466,-0.427,-14.343
0.177,0.441,-0.783,-26.428,2.563,-32.654
0.170,0.248,-0.783,-26.306,12.878,-43.152
0.118,0.078,-0.842,-29.846,27.100,-42.542
0.088,-0.025,-0.943,-32.349,43.396,-31.067
0.024,-0.050,-1.072,-29.907,56.824,-12.939
-0.052,-0.002,-1.222,-22.339,66.589,4.883
-0.121,0.121,-1.349,-15.564,69.092,22.888
-0.168,0.272,-1.437,-11.841,63.904,36.133
-0.162,0.406,-1.499,-8.484,54.749,39.856
-0.149,0.504,-1.518,-5.066,39.307,33.936
-0.130,0.550,-1.487,-3.784,18.433,21.851
-0.086,0.511,-1.409,-6.042,-1.282,5.310
-0.062,0.388,-1.275,-10.437,-19.836,-9.827
-0.039,0.244,-1.127,-17.090,-34.790,-17.090
-0.006,0.141,-0.981,-26.489,-42.664,-12.207
0.001,0.099,-0.850,-34.668,-43.335,0.854

-0.460,-0.624,-1.633,-122.681,76.721,49.072
-0.496,-0.620,-1.593,-116.333,41.199,59.509
-0.490,-0.547,-1.450,-108.765,7.935,72.144
-0.448,-0.409,-1.239,-109.924,-19.470,83.923
-0.410,-0.298,-1.024,-119.080,-36.072,86.731
-0.369,-0.256,-0.867,-118.286,-36.804,75.500
-0.341,-0.289,-0.774,-111.328,-27.222,56.396
-0.355,-0.373,-0.746,-101.196,-12.634,37.720
-0.348,-0.479,-0.808,-87.219,5.249,24.048
-0.337,-0.585,-0.934,-72.815,20.508,14.893
-0.342,-0.678,-1.067,-62.012,27.161,11.353
-0.331,-0.728,-1.173,-56.396,23.743,14.893
-0.317,-0.734,-1.206,-54.199,9.521,24.292
-0.308,-0.682,-1.150,-56.335,-10.681,36.743
-0.275,-0.579,-1.020,-62.378,-30.151,48.889
-0.229,-0.495,-0.860,-68.298,-45.105,53.772
-0.207,-0.462,-0.709,-75.195,-52.979,50.537
-0.204,-0.462,-0.596,-83.801,-51.636,44.556
-0.181,-0.476,-0.530,-89.417,-42.664,39.490
-0.166,-0.506,-0.514,-88.623,-28.809,33.752
-0.197,-0.565,-0.570,-80.566,-12.329,26.184
-0.214,-0.643,-0.694,-74.646,1.892,20.203
-0.238,-0.717,-0.801,-77.515,8.057,17.883
-0.271,-0.752,-0.898,-81.604,7.629,20.508
-0.264,-0.719,-0.981,-82.092,3.906,29.358
-0.221,-0.666,-1.027,-78.613,-5.676,34.729
-0.281,-0.632,-1.040,-75.562,-20.691,32.166
-0.236,-0.318,-1.572,-75.806,-28.992,31.677
-0.225,-0.267,-1.472,-89.722,-75.867,14.648
-0.232,-0.438,-0.929,-101.318,-139.648,-12.756
-0.215,-0.656,-0.415,-105.164,-168.457,-33.020
-0.159,-0.824,-0.053,-100.830,-155.823,-40.405
-0.133,-0.941,0.110,-91.858,-114.563,-38.269
-0.102,-1.009,0.034,-78.430,-58.105,-30.212
-0.087,-1.019,-0.240,-70.435,-6.531,-20.081
-0.096,-0.981,-0.514,-69.336,23.193,-8.728
-0.136,-0.930,-0.735,-74.280,29.907,1.465
-0.156,-0.919,-0.788,-82.153,18.372,12.024
-0.119,-0.927,-0.686,-88.196,1.953,24.353
-0.119,-0.948,-0.505,-86.487,-10.559,32.959
-0.180,-1.233,-0.846,-78.491,-3.845,37.170
-0.237,-1.470,-1.517,-58.777,4.028,50.598
-0.246,-1.133,-1.833,-56.030,-38.879,90.759
-0.226,-0.339,-1.616,-67.078,-118.042,124.939
-0.151,0.166,-1.045,-73.547,-194.336,107.605
-0.126,0.130,-0.451,-88.135,-238.525,41.687
-0.089,-0.220,-0.050,-95.703,-237.610,-29.175
-0.080,-0.648,0.121,-91.797,-204.895,-77.576
-0.055,-1.013,0.127,-85.083,-159.058,-94.971
-0.023,-1.278,-0.022,-78.613,-112.488,-85.571
-0.013,-1.397,-0.254,-72.144,-75.745,-57.007
-0.007,-1.370,-0.422,-70.557,-58.289,-20.386
0.017,-1.182,-0.441,-72.815,-56.519,13.733
0.028,-0.978,-0.362,-77.881,-58.533,34.546
0.022,-0.859,-0.272,-79.712,-56.335,38.330
0.030,-0.862,-0.290,-84.167,-49.255,32.532
0.011,-0.822,-0.441,-84.778,-40.100,26.184
0.035,-0.765,-0.543,-78.552,-42.175,21.484
0.028,-0.859,-0.546,-74.280,-54.138,10.010
0.045,-0.864,-0.424,-68.787,-69.336,2.380
0.055,-0.807,-0.264,-62.378,-78.430,-3.174
0.088,-0.836,-0.145,-61.951,-76.477,-13.794
0.099,-0.970,-0.103,-63.843,-64.636,-26.672
0.107,-1.073,-0.113,-59.326,-49.316,-31.311
0.093,-1.122,-0.189,-52.673,-34.302,-27.649
0.099,-1.029,-0.284,-38.574,-24.475,-16.968
0.100,-1.009,-0.329,-22.400,-21.606,-9.460
0.052,-1.112,-0.346,-10.864,-22.705,-9.094
0.046,-1.099,-0.414,-4.456,-24.292,-4.822
0.065,-0.945,-0.434,5.127,-29.114,1.404
0.091,-0.888,-0.356,15.015,-36.743,-1.404
0.115,-0.947,-0.235,17.517,-39.490,-10.742
0.145,-1.000,-0.183,14.587,-34.485,-14.771
0.160,-1.047,-0.180,8.789,-25.391,-14.648
0.180,-1.124,-0.248,2.441,-16.724,-13.062
0.161,-1.168,-0.298,0.427,-12.268,-7.874
0.717,-1.141,-0.289,4.333,-11.780,2.258
0.236,-1.229,-0.267,26.978,-12.573,14.893
0.598,-1.112,-0.280,26.855,-12.939,30.518
0.317,-0.933,-0.244,24.475,-14.038,42.847
0.475,-0.620,-0.283,16.846,-13.306,41.870
0.507,-1.008,-0.390,8.972,-11.780,15.625
0.537,-1.210,-0.356,0.122,-20.996,3.723
0.576,-1.135,-0.270,0.977,-29.541,11.902
0.610,-1.026,-0.226,7.568,-27.222,15.930
0.616,-1.027,-0.282,9.888,-18.799,11.292
0.573,-1.056,-0.452,7.812,-10.803,5.554
0.610,-1.018,-0.552,7.324,-9.155,3.967
0.660,-1.012,-0.570,8.362,-12.573,1.648
0.722,-1.062,-0.563,8.545,-15.442,-4.456
0.758,-1.115,-0.654,5.127,-16.296,-6.897
0.890,-1.155,-0.683,-2.258,-21.118,-2.319
0.973,-1.192,-0.614,-7.751,-30.334,3.967
1.024,-1.186,-0.584,-12.024,-34.058,10.071
1.024,-1.162,-0.642,-15.808,-32.410,16.602
1.071,-1.161,-0.700,-18.555,-32.532,21.973
1.126,-1.225,-0.654,-21.729,-37.659,27.710
1.144,-1.077,-0.561,-25.940,-42.664,41.321
1.264,-0.809,-0.395,-31.555,-44.006,54.199
1.027,-0.731,-0.347,-32.959,-40.161,48.157
0.972,-0.523,-0.635,-38.269,-33.936,37.415
1.163,-0.246,-0.393,-41.382,-44.678,29.968
0.970,-0.657,0.220,-39.490,-43.274,3.418
0.858,-0.849,0.085,-53.162,-0.610,-4.883
0.799,-0.050,-0.761,-47.546,36.377,9.827
0.573,-0.415,-1.014,-22.644,14.282,-27.161
0.294,-0.856,-0.499,-10.437,-45.349,-44.434
0.406,-0.479,-0.252,-21.729,-79.651,-1.831
0.897,-0.310,0.250,-40.283,-103.577,26.428
0.740,-0.490,1.339,-43.152,-116.211,10.925
0.279,-0.578,1.652,-66.223,-55.054,-20.386
-0.121,-0.503,0.786,-83.557,58.411,-55.481
-0.398,-0.699,0.019,-72.205,120.850,-104.004
-0.681,-0.982,0.104,-43.640,111.877,-148.621
-0.870,-0.827,0.480,-22.949,93.018,-159.485
-1.124,-0.762,0.472,-24.963,100.159,-155.029
-1.370,-0.916,0.133,-53.467,114.014,-141.357
-1.563,-1.094,-0.133,-93.201,109.314,-110.229
-1.651,-1.003,-0.208,-125.305,86.975,-65.796

-0.905,-1.574,0.640,-93.140,43.518,-54.810
-1.075,-1.390,0.423,-52.307,68.420,-52.551
-1.238,-0.916,0.006,-18.372,88.379,-42.358
-1.267,-0.772,-0.254,-1.221,83.557,-44.495
-1.201,-1.077,-0.194,3.418,60.059,-54.749
-1.075,-1.239,-0.003,4.700,40.161,-50.171
-1.037,-0.842,0.010,2.747,36.133,-32.532
-0.977,-0.555,-0.157,-1.648,38.452,-32.104
-0.873,-1.000,-0.269,-5.798,33.569,-57.495
-0.711,-1.448,-0.235,-11.536,21.851,-65.857
-0.666,-1.407,-0.269,-11.353,10.559,-41.565
-0.607,-1.140,0.058,-13.184,-2.441,-13.794
-0.646,-1.131,0.044,-10.742,2.075,-6.165
-0.625,-1.137,-0.147,-1.282,11.047,-3.967
-0.630,-0.910,-0.072,11.902,2.258,3.479
-0.632,-0.609,0.115,20.569,-10.437,7.080
-0.608,-0.368,0.192,15.991,-15.137,4.211
-0.559,-0.396,0.183,-2.319,-16.724,-3.357
-0.574,-0.671,0.243,-26.123,-21.729,-11.108
-0.562,-0.755,0.197,-47.302,-23.437,-9.399
-0.594,-0.911,0.147,-59.509,-21.729,-7.446
-0.735,-1.451,0.169,-69.336,-18.921,-13.489
-0.854,-1.636,-0.063,-66.711,-7.629,-3.113
-0.912,-1.696,-0.232,-48.462,-5.249,7.446
-0.988,-1.735,-0.173,-20.874,-18.311,7.263
-1.038,-1.563,-0.067,8.301,-32.898,3.479
-1.040,-1.436,-0.048,30.579,-41.382,-4.761
-1.034,-1.372,0.004,40.588,-47.424,-10.803
-1.064,-1.228,0.096,35.889,-52.734,-2.258
-1.105,-1.114,0.107,15.259,-53.284,14.526
-1.178,-0.975,0.076,-12.085,-53.406,31.250
-1.267,-1.032,0.099,-31.738,-57.434,41.199
-1.319,-1.137,0.098,-43.640,-59.509,48.096
-1.258,-1.196,-0.005,-41.077,-58.472,58.044
-1.182,-1.223,0.083,-22.949,-63.660,63.843
-1.069,-1.082,-0.018,-0.916,-69.031,69.336
-0.892,-0.745,-0.057,16.357,-79.834,79.346
-0.707,-0.612,0.057,21.912,-97.229,81.116
-0.568,-0.748,0.053,22.461,-105.103,76.416
-0.380,-0.819,0.065,20.508,-109.070,80.078
-0.234,-0.727,0.143,22.217,-112.976,89.355
-0.131,-0.532,0.290,30.640,-114.197,94.238
-0.069,-0.313,0.395,37.415,-108.093,89.111
0.015,-0.330,0.273,41.382,-92.529,68.909
0.167,-0.693,0.095,44.922,-80.200,39.734
0.324,-0.848,0.017,50.598,-78.674,27.954
0.452,-0.777,0.041,56.702,-82.153,30.518
0.538,-0.722,0.101,58.105,-84.351,32.654
0.627,-0.723,0.169,53.101,-80.566,33.203
0.659,-0.774,0.183,48.279,-71.106,33.325
0.651,-0.763,0.113,44.006,-56.702,33.203
0.654,-0.521,0.085,45.105,-45.959,33.630
0.651,-0.448,0.100,51.758,-39.063,21.240
0.626,-0.708,0.073,60.181,-29.419,-1.770
0.582,-0.951,0.017,68.115,-19.104,-13.733
0.572,-0.930,0.004,73.792,-13.550,-9.644
0.596,-0.871,0.038,72.815,-10.803,-5.554
0.591,-0.829,0.043,69.519,-6.958,-7.324
0.625,-0.880,0.021,64.209,-2.014,-10.620
0.587,-0.985,0.017,61.096,2.380,-11.169
0.532,-0.931,0.008,57.800,7.080,-5.249
0.535,-0.888,-0.030,48.645,14.282,-2.563
0.549,-0.955,-0.056,41.443,21.423,-7.263
0.501,-1.065,-0.065,43.335,27.954,-11.047
0.329,-0.984,-0.141,50.354,36.255,-7.751
0.274,-0.821,-0.262,53.467,41.687,-2.991
0.346,-1.005,-0.329,54.138,39.673,-10.681
0.399,-1.267,-0.274,60.059,28.625,-19.958
0.438,-1.345,-0.182,70.984,16.968,-18.311
0.444,-1.275,-0.125,82.458,11.414,-9.460
0.379,-1.199,-0.179,87.402,10.193,-1.038
0.403,-1.192,-0.286,79.895,9.766,6.226
0.427,-1.239,-0.338,73.914,4.700,12.268
0.359,-1.097,-0.342,76.355,-3.967,19.165
0.297,-0.818,-0.346,80.017,-12.329,21.240
0.206,-0.675,-0.235,80.139,-18.188,9.033
0.211,-0.848,-0.232,67.444,-8.850,-11.475
0.236,-1.241,-0.352,34.607,14.771,-25.330
0.178,-1.311,-0.385,48.645,21.118,-12.756
0.210,-0.958,-0.435,41.077,26.367,18.250
0.158,-0.978,-0.472,34.851,29.724,23.926
0.247,-1.061,-0.494,26.489,28.564,23.865
0.219,-1.154,-0.463,23.682,23.987,28.442
0.228,-1.048,-0.373,18.799,20.325,39.368
0.172,-0.915,-0.440,17.822,21.667,42.725
0.212,-0.847,-0.475,8.362,21.667,40.894
0.188,-0.849,-0.397,3.113,16.479,32.471
0.186,-0.927,-0.575,2.563,13.855,24.231
0.233,-0.800,-0.444,-7.019,2.869,27.222
0.367,-0.803,-0.263,-15.076,-6.897,21.851
0.310,-0.995,-0.311,-16.724,-4.639,13.245
0.243,-0.976,-0.412,-22.583,-3.723,20.508
0.293,-0.846,-0.369,-31.311,-9.949,30.701
0.430,-0.903,-0.236,-36.072,-17.456,27.039
0.317,-1.019,-0.410,-31.799,-15.991,14.954
0.099,-0.834,-0.525,-28.442,-20.813,17.090
0.310,-0.607,-0.144,-27.100,-41.504,22.034
0.203,-0.971,-0.522,-9.155,-33.630,-8.789
0.033,-0.963,-0.710,1.892,-34.851,-17.639
0.144,-0.639,-0.267,10.315,-59.448,-7.141
0.177,-0.984,-0.230,24.719,-57.373,-25.330
0.133,-1.128,-0.336,28.259,-40.100,-33.875
0.131,-0.845,-0.258,17.883,-34.668,-14.404
0.077,-0.896,-0.359,5.432,-27.771,-10.742
0.147,-1.117,-0.344,-6.348,-24.536,-12.573
0.236,-1.193,-0.131,-16.296,-28.076,-3.845
0.130,-1.094,-0.073,-27.527,-19.775,9.705
0.179,-0.909,-0.176,-41.199,-4.211,18.860
0.182,-1.090,-0.268,-54.626,4.333,12.695
0.158,-1.218,-0.272,-64.880,5.127,11.230
0.112,-1.039,-0.185,-71.533,4.761,20.996
0.153,-0.914,-0.149,-74.219,9.949,23.743
0.153,-1.071,-0.222,-77.148,18.616,13.916
0.134,-1.139,-0.239,-76.660,22.461,12.085
0.120,-1.050,-0.273,-72.937,24.719,18.250
0.124,-1.031,-0.261,-67.200,25.818,20.569
0.127,-1.054,-0.236,-61.462,24.902,19.409
0.094,-0.969,-0.255,-55.481,24.963,19.714
0.098,-0.867,-0.235,-51.025,22.949,18.494

0.845,-0.671,1.247,-58.533,-163.452,21.423
0.854,-0.436,1.175,-61.157,-162.537,31.982
0.851,-0.314,1.180,-99.487,-167.053,23.315
0.897,-0.744,1.472,-88.440,-181.458,-1.526
0.982,-0.671,1.386,-85.938,-178.284,1.404
1.206,-0.756,1.206,-96.985,-169.067,3.601
1.128,-0.671,1.429,-148.743,-179.932,0.122
1.240,-0.844,1.955,-130.127,-189.758,-10.742
1.233,-0.557,1.749,-114.441,-150.818,-5.554
1.144,-0.294,1.205,-124.390,-109.314,-7.935
1.033,-0.309,0.862,-132.751,-101.624,-22.461
0.863,-0.280,0.659,-130.737,-111.633,-32.959
0.702,-0.172,0.456,-122.620,-123.108,-33.081
0.536,-0.128,0.318,-101.318,-134.583,-33.813
0.503,-0.045,0.390,-62.378,-154.541,-35.156
0.438,-0.111,0.646,-24.719,-173.584,-46.082
0.502,-0.295,1.103,3.174,-184.082,-62.866
0.411,-0.435,1.583,6.104,-179.016,-78.613
0.174,0.310,1.709,-58.899,-151.794,-85.815
-0.226,-0.405,1.750,-85.571,-114.136,-118.469
-0.509,-0.194,1.085,-61.584,-62.927,-119.385
-0.843,0.368,0.189,-69.641,-29.297,-106.384
-1.037,0.216,-0.337,-79.346,-35.156,-131.714
-1.076,-0.437,-0.374,-78.491,-58.350,-168.579
-1.175,-0.856,-0.524,-55.115,-65.613,-176.758
-1.083,-1.200,-1.069,-16.602,-49.072,-158.447
-1.280,-1.392,-1.544,32.166,-50.049,-127.380
-1.420,-1.277,-0.485,-3.662,-91.553,-91.736
-1.501,-2.020,0.217,113.525,-112.305,-87.708
-1.983,-0.940,0.904,73.059,-76.843,-23.743
-2.246,-0.477,0.987,113.403,-33.447,-8.484
-2.456,-0.334,-0.047,69.702,25.513,-26.001
-2.514,-0.367,-0.618,4.517,26.917,-69.153
-2.186,-0.865,-1.042,-38.818,-0.427,-120.605
-1.526,-1.639,-1.060,-42.908,-31.250,-158.875
-0.855,-2.070,-0.426,-32.654,-70.923,-156.433
-0.514,-2.120,-0.345,-25.574,-68.115,-126.099
-0.367,-1.878,-0.806,-13.306,-36.682,-86.121
-0.389,-1.697,-0.809,5.371,-39.001,-49.011
-0.485,-1.363,-0.252,15.625,-67.383,-13.611
-0.631,-1.015,0.248,30.212,-91.003,15.076
-0.688,-0.721,0.757,11.475,-99.182,30.884
-0.697,-0.560,0.997,-6.470,-86.060,39.307
-0.868,-0.327,1.176,-32.166,-60.425,46.326
-1.154,0.172,0.809,-44.312,-19.531,50.964
-1.317,0.331,0.026,-42.664,19.104,35.950
-1.244,0.193,-0.219,-35.400,16.602,9.094
-1.018,0.018,0.057,-31.677,-8.911,-8.789
-0.789,-0.298,0.190,-31.799,-17.456,-22.278
-0.657,-0.638,0.158,-29.114,-12.878,-27.771
-0.592,-0.854,0.126,-23.010,-9.949,-20.447
-0.625,-1.073,0.163,-11.230,-8.057,-6.836
-0.699,-1.042,0.401,4.150,-9.033,13.428
-0.810,-0.803,0.455,25.024,-1.648,30.273
-0.895,-1.092,0.361,45.837,11.902,29.236
-0.946,-1.193,0.572,28.748,13.733,35.339
-0.999,-0.908,0.725,34.973,13.184,53.589
-1.068,-1.043,0.770,16.602,27.100,52.673
-1.163,-0.957,0.603,4.578,47.424,56.580
-1.267,-0.714,0.465,-7.629,59.814,61.462
-1.332,-0.649,0.363,-22.949,67.078,52.917
-1.312,-0.711,0.329,-37.170,75.317,39.673
-1.276,-0.685,0.370,-46.265,83.984,32.837
-1.220,-0.684,0.361,-41.992,95.520,25.757
-1.201,-0.562,0.229,-31.372,108.154,14.221
-1.205,-0.622,0.223,-7.019,117.310,-2.747
-1.278,-0.707,0.302,12.512,121.948,-17.212
-1.344,-0.534,0.182,29.785,140.015,-18.311
-1.333,-0.204,-0.132,59.692,154.724,-17.151
-1.202,-0.064,-0.261,65.491,145.325,-23.254
-1.093,-0.234,-0.328,81.238,117.004,-31.738
-0.880,-0.393,-0.067,67.261,79.407,-31.250
-0.730,-0.703,0.219,77.271,48.523,-19.775
-0.626,-0.760,0.436,60.120,36.804,0.732
-0.677,-0.792,0.298,75.378,44.006,28.259
-0.654,-0.521,0.256,51.575,44.250,52.856
-0.607,-0.301,0.248,63.721,40.039,66.162
-0.534,-0.307,0.238,76.294,29.114,65.674
-0.445,-0.226,0.490,81.726,10.864,69.580
-0.298,-0.087,0.808,71.838,-5.554,72.021
-0.173,-0.173,0.973,56.030,-6.287,61.218
-0.085,-0.297,1.034,43.884,3.540,47.485
-0.032,-0.360,0.912,41.382,20.386,37.720
-0.044,-0.557,0.600,40.222,39.856,27.039
-0.043,-0.608,0.340,46.387,48.767,23.499
-0.018,-0.705,0.225,64.880,42.969,24.353
-0.084,-0.673,0.332,83.069,27.588,29.236
-0.056,-0.442,0.560,93.628,10.925,37.598
0.018,-0.366,0.775,95.642,3.601,31.616
0.063,-0.453,0.875,88.135,5.432,17.578
0.149,-0.607,0.789,74.585,12.512,7.568
0.201,-0.726,0.599,55.725,18.127,5.188
0.220,-0.748,0.512,43.884,15.381,8.301
0.206,-0.881,0.450,45.166,12.756,7.629
0.103,-1.092,0.225,56.946,14.282,8.362
-0.011,-1.024,0.157,81.360,7.996,17.517
-0.102,-0.756,0.410,109.741,-11.963,26.978
-0.056,-0.694,0.652,129.333,-24.414,21.667
0.015,-0.810,1.042,140.869,-33.508,9.888
0.070,-0.763,1.439,142.639,-35.767,4.761
0.149,-0.767,1.536,144.043,-18.921,-2.075
0.178,-0.927,1.469,129.761,7.141,-13.855
0.173,-0.952,1.308,117.493,31.067,-18.799
0.224,-1.040,1.053,103.760,50.964,-21.240
0.098,-1.178,0.692,90.088,65.857,-19.043
0.037,-0.963,0.459,80.994,67.871,-5.371
0.012,-0.788,0.328,79.407,62.683,-1.343
0.020,-0.961,0.101,80.627,60.242,-15.381
0.046,-1.226,-0.080,87.708,52.612,-24.963
0.005,-1.211,0.019,91.431,28.687,-16.052
0.006,-0.951,0.312,95.276,3.418,-2.258
0.092,-0.915,0.568,101.746,-8.850,-3.967
0.090,-1.016,0.792,103.760,-11.597,-13.123
0.105,-1.058,0.947,103.088,-8.606,-13.428
0.106,-0.994,1.106,99.365,-3.174,-8.789
0.113,-0.953,1.114,91.858,10.376,-7.202
0.096,-0.992,1.033,85.815,28.748,-11.475
0.065,-0.990,0.961,79.529,42.603,-15.198
0.004,-0.883,0.844,73.669,55.237,-18.860

-1.950,-0.858,1.516,172.058,-11.292,-50.354
-1.809,-0.777,1.684,138.733,-6.165,-18.188
-1.837,-0.807,1.425,66.895,4.456,9.583
-1.848,0.025,0.979,1.709,8.118,55.420
-1.745,0.630,0.409,-38.757,11.414,78.979
-1.688,1.047,-0.067,-69.397,6.226,74.524
-1.485,1.107,-0.442,-70.068,0.732,50.964
-1.168,0.565,-0.323,-52.307,-20.569,6.958
-0.826,-0.017,0.104,-39.307,-46.814,-26.001
-0.557,-0.654,0.483,-20.996,-52.856,-45.715
-0.347,-1.118,0.637,-10.498,-39.124,-47.180
-0.316,-1.205,0.525,-13.672,-17.822,-26.367
-0.439,-0.938,0.297,-26.123,-3.601,2.991
-0.635,-0.506,0.003,-43.274,3.540,27.832
-0.842,-0.159,-0.288,-53.467,7.263,38.452
-0.995,0.136,-0.435,-55.908,3.906,37.781
-1.104,0.291,-0.494,-53.589,-2.014,29.724
-1.182,0.238,-0.596,-47.241,-4.822,14.160
-1.224,0.155,-0.703,-37.537,-9.033,2.014
-1.256,0.117,-0.682,-35.645,-20.081,-4.272
-1.273,0.142,-0.645,-34.241,-29.968,-8.057
-1.291,0.122,-0.661,-31.433,-35.339,-14.099
-1.258,-0.118,-0.584,-23.254,-40.710,-22.400
-1.177,-0.269,-0.463,-16.418,-44.739,-22.644
-1.122,-0.267,-0.485,-14.465,-44.434,-13.550
-1.106,-0.248,-0.527,-19.226,-47.668,-4.150
-1.119,-0.142,-0.440,-29.297,-59.082,6.348
-1.158,0.057,-0.285,-38.269,-70.129,15.686
-1.220,0.231,-0.151,-44.189,-74.829,16.907
-1.272,0.293,-0.141,-45.288,-72.266,7.751
-1.236,0.244,-0.217,-40.955,-66.040,-6.042
-1.136,0.031,-0.212,-35.400,-63.416,-19.653
-1.014,-0.267,-0.189,-31.311,-62.622,-29.053
-0.977,-0.411,-0.298,-28.076,-60.425,-27.039
-0.998,-0.429,-0.432,-31.311,-62.805,-16.418
-1.098,-0.237,-0.550,-34.424,-69.519,-1.648
-1.189,-0.003,-0.429,-34.485,-82.520,8.057
-1.227,0.206,-0.115,-35.400,-95.642,9.216
-1.219,0.391,0.061,-31.189,-94.849,0.610
-1.192,0.454,0.089,-20.996,-82.642,-18.677
-1.083,0.286,0.095,-11.719,-70.313,-44.434
-0.934,-0.024,0.043,-1.709,-56.152,-65.613
-0.787,-0.169,-0.167,1.709,-41.748,-71.045
-0.729,-0.158,-0.436,-2.930,-33.875,-65.063
-0.733,-0.219,-0.593,-12.512,-38.513,-59.570
-0.777,-0.186,-0.647,-17.639,-47.791,-51.514
-0.796,-0.020,-0.546,-17.151,-56.885,-40.955
-0.772,0.117,-0.398,-14.038,-62.988,-36.255
-0.736,0.253,-0.275,-9.338,-62.866,-38.025
-0.715,0.402,-0.352,-5.981,-53.223,-43.457
-0.680,0.370,-0.476,-1.709,-41.809,-55.847
-0.633,0.230,-0.506,-0.366,-37.048,-68.176
-0.606,0.189,-0.617,-2.258,-32.104,-71.899
-0.580,0.125,-0.735,-5.798,-28.503,-72.388
-0.530,-0.162,-0.661,-4.639,-29.358,-74.036
-0.513,-0.210,-0.567,1.648,-29.419,-65.308
-0.568,0.084,-0.572,3.418,-23.926,-45.715
-0.616,0.255,-0.606,0.000,-19.653,-38.147
-0.651,0.295,-0.578,-0.305,-16.724,-42.664
-0.617,0.308,-0.514,2.563,-12.268,-49.316
-0.578,0.166,-0.619,9.338,-0.671,-58.655
-0.556,0.105,-0.901,13.000,12.268,-62.683
-0.548,0.159,-1.179,11.414,15.381,-59.021
-0.582,0.105,-1.252,10.498,6.287,-57.068
-0.529,0.113,-1.025,13.062,-8.911,-51.392
-0.456,0.211,-0.758,17.456,-16.785,-42.114
-0.466,0.247,-0.625,20.081,-11.780,-39.063
-0.524,0.421,-0.629,18.921,-3.540,-35.706
-0.536,0.555,-0.698,17.334,5.249,-36.194
-0.522,0.270,-0.664,20.325,12.512,-49.072
-0.554,0.034,-0.729,30.640,24.353,-56.335
-0.586,0.164,-0.910,41.260,37.598,-46.875
-0.575,0.231,-1.050,46.631,41.016,-39.917
-0.584,0.112,-1.155,47.180,37.537,-40.894
-0.573,0.177,-1.232,46.631,30.762,-35.461
-0.572,0.342,-1.279,47.974,20.142,-28.198
-0.568,0.466,-1.272,49.805,6.165,-27.893
-0.543,0.590,-1.273,52.673,-6.958,-31.433
-0.477,0.594,-1.252,57.007,-19.470,-40.222
-0.397,0.449,-1.025,59.937,-34.790,-50.659
-0.353,0.272,-0.763,61.707,-43.213,-54.504
-0.271,0.221,-0.591,62.073,-40.344,-47.668
-0.254,0.130,-0.498,59.021,-26.123,-36.194
-0.219,0.146,-0.432,56.946,-8.606,-23.010
-0.211,0.372,-0.538,52.124,11.658,-6.958
-0.278,0.490,-0.809,44.250,30.579,-2.747
-0.354,0.509,-1.070,36.621,39.795,-4.822
-0.420,0.524,-1.246,34.302,39.307,-7.080
-0.454,0.594,-1.358,39.368,34.180,-8.972
-0.456,0.674,-1.453,49.377,27.222,-12.451
-0.412,0.623,-1.398,56.091,13.916,-20.813
-0.364,0.567,-1.257,60.120,-0.732,-26.794
-0.262,0.495,-1.005,60.791,-11.108,-28.564
-0.178,0.349,-0.766,55.603,-15.442,-28.259
-0.160,0.335,-0.756,47.852,-8.057,-20.996
-0.192,0.437,-0.922,40.039,1.709,-10.864
-0.225,0.523,-1.004,28.381,2.136,-4.578
-0.241,0.510,-0.932,15.259,-3.723,-3.113
-0.247,0.514,-0.885,4.395,-4.944,-1.587
-0.271,0.560,-0.972,-1.648,-0.427,0.061
-0.296,0.604,-1.089,-5.188,2.075,-0.977
-0.356,0.637,-1.078,-10.071,-1.831,-4.761
-0.442,0.631,-1.012,-14.282,-6.714,-9.766
-0.502,0.622,-1.017,-10.986,-5.127,-13.733
-0.532,0.569,-1.045,-7.324,-2.502,-15.686
-0.552,0.541,-1.104,-5.676,-1.526,-14.954
-0.551,0.542,-1.177,-4.272,-2.808,-11.841
-0.539,0.448,-1.176,-2.136,-8.362,-10.132
-0.537,0.420,-1.094,-0.977,-17.029,-5.493
-0.541,0.543,-1.012,-0.977,-24.597,2.441
-0.544,0.621,-0.975,-2.075,-29.053,5.676
-0.536,0.604,-0.930,-4.456,-33.386,2.869
-0.519,0.564,-0.806,-7.812,-38.635,0.244
-0.480,0.532,-0.637,-10.010,-41.199,-1.038
-0.445,0.483,-0.558,-10.376,-36.255,-1.648
-0.451,0.464,-0.612,-11.658,-26.978,-1.831
-0.503,0.511,-0.729,-12.634,-19.714,-0.183
-0.547,0.560,-0.888,-10.681,-16.785,-0.488
-0.566,0.517,-0.953,-4.089,-19.226,-4.578

-0.173,1.139,-1.954,99.060,127.625,-65.063
-0.151,1.168,-2.139,103.271,119.202,-72.998
-0.133,1.152,-2.224,108.826,103.516,-81.970
-0.101,1.223,-2.259,114.502,85.815,-86.548
-0.061,1.293,-2.245,121.033,67.749,-91.309
-0.007,1.339,-2.149,130.066,47.546,-97.717
0.020,1.399,-1.937,141.113,27.649,-104.431
0.058,1.445,-1.652,154.236,12.451,-111.450
0.149,1.441,-1.425,172.180,7.690,-120.911
0.169,1.360,-1.332,188.110,9.399,-129.456
0.193,1.428,-1.353,195.740,10.010,-133.484
0.150,1.433,-1.533,209.045,9.888,-141.296
0.111,1.291,-1.618,230.652,0.427,-155.640
0.045,1.272,-1.620,251.648,-18.982,-166.321
-0.041,1.293,-1.617,270.752,-42.358,-177.368
-0.104,0.813,-1.693,292.480,-69.519,-200.073
-0.299,0.202,-1.735,315.125,-106.384,-216.370
-0.538,-0.345,-1.058,330.444,-162.903,-208.679
-0.470,-0.488,0.090,341.675,-221.924,-180.969
-0.511,-0.235,0.494,314.758,-235.291,-142.700
-0.662,0.072,0.423,234.131,-235.840,-120.544
-0.900,0.409,0.449,115.601,-264.404,-113.220
-1.237,0.636,0.517,0.549,-298.096,-119.629
-1.544,0.688,0.331,-64.941,-310.913,-136.719
-1.838,0.665,0.109,-59.998,-310.852,-161.682
-2.106,0.680,0.273,13.550,-315.308,-195.190
-2.401,0.559,0.919,147.034,-317.749,-249.817
-2.245,-0.602,1.633,361.938,-297.119,-331.238
-2.031,-2.487,1.418,480.042,-234.863,-349.426
-2.317,-1.192,0.455,307.190,-157.288,-184.265
-2.022,-0.172,-0.194,179.077,-145.752,-74.524
-1.917,-0.935,0.612,85.999,-220.947,-85.938
-2.115,-0.902,1.346,41.992,-252.014,-44.983
-2.044,-0.284,1.525,69.031,-223.694,20.386
-1.885,0.535,1.505,96.008,-193.542,67.444
-1.758,0.851,1.520,108.643,-173.706,75.806
-1.489,0.778,1.785,120.483,-165.039,60.425
-1.225,0.421,2.207,124.329,-155.029,39.246
-0.963,0.242,2.486,111.938,-128.601,39.185
-0.793,0.243,2.476,81.543,-84.167,49.927
-0.735,0.439,2.274,37.170,-37.170,60.608
-0.662,0.589,1.852,-8.179,4.456,64.941
-0.630,0.453,1.221,-50.293,40.649,58.655
-0.662,0.425,0.739,-80.383,60.730,57.251
-0.673,0.689,0.470,-93.628,65.796,66.711
-0.694,0.747,0.158,-95.276,70.679,63.782
-0.719,0.794,-0.100,-89.539,70.618,53.894
-0.686,0.832,-0.085,-74.097,56.641,47.058
-0.667,0.617,0.104,-56.091,41.992,36.743
-0.694,0.603,0.356,-39.307,36.255,36.865
-0.716,0.828,0.496,-22.827,42.053,46.387
-0.741,0.865,0.523,-12.268,52.979,44.312
-0.753,0.744,0.480,-8.423,61.584,35.583
-0.810,0.624,0.510,-13.611,64.148,31.189
-0.846,0.620,0.533,-27.466,63.721,33.569
-0.850,0.509,0.405,-42.908,67.261,35.461
-0.870,0.347,0.497,-60.730,60.669,35.645
-0.900,0.375,0.809,-74.341,51.270,43.945
-0.901,0.389,1.056,-80.017,55.969,51.514
-0.887,0.374,1.096,-84.412,74.890,55.786
-0.930,0.365,1.001,-88.684,97.656,60.730
-1.000,0.426,0.870,-92.102,116.089,68.115
-1.043,0.643,0.647,-93.201,130.554,76.294
-0.991,0.737,0.521,-95.520,135.986,74.585
-0.942,0.618,0.604,-106.079,130.798,62.378
-0.916,0.557,0.687,-119.629,128.296,53.772
-0.866,0.537,0.549,-132.935,136.841,50.415
-0.776,0.497,0.332,-143.250,144.958,47.729
-0.675,0.575,0.267,-151.917,140.625,47.729
-0.624,0.651,0.331,-162.842,131.897,45.349
-0.553,0.596,0.322,-173.279,130.310,37.537
-0.500,0.574,0.197,-177.551,135.315,31.860
-0.514,0.680,0.065,-171.692,137.695,29.724
-0.556,0.868,-0.089,-162.659,136.292,26.123
-0.547,1.012,-0.290,-148.071,134.521,16.052
-0.492,1.023,-0.279,-133.789,122.253,-0.305
-0.419,1.028,-0.052,-122.498,104.553,-14.404
-0.370,1.009,0.060,-112.549,97.778,-26.611
-0.298,0.972,-0.030,-105.347,102.356,-36.316
-0.245,0.895,-0.166,-106.567,102.966,-42.542
-0.214,0.873,-0.162,-112.671,93.750,-43.945
-0.177,0.875,-0.170,-117.920,85.144,-42.603
-0.147,0.930,-0.258,-117.920,81.482,-39.856
-0.143,0.950,-0.379,-111.511,78.552,-39.185
-0.118,0.996,-0.369,-107.178,69.092,-37.598
-0.105,1.137,-0.379,-102.051,62.683,-33.997
-0.064,1.307,-0.617,-88.501,67.200,-33.081
-0.018,1.321,-0.877,-70.251,69.214,-40.527
0.043,1.119,-0.927,-55.786,56.335,-52.429
0.120,0.918,-0.783,-43.091,37.048,-55.115
0.182,0.970,-0.655,-26.062,26.001,-44.556
0.233,0.959,-0.791,-5.432,27.344,-36.560
0.287,0.794,-0.784,8.789,18.799,-34.729
0.374,0.722,-0.379,7.507,-6.653,-25.146
0.403,0.713,0.019,0.610,-20.691,-11.047
0.378,0.736,-0.006,-0.732,-8.606,1.465
0.338,0.932,-0.250,3.967,6.836,15.686
0.329,1.211,-0.331,7.812,7.324,24.902
0.328,1.238,-0.154,7.812,-2.014,18.921
0.339,1.125,-0.067,8.240,-4.150,7.874
0.358,1.176,-0.136,10.315,3.479,3.906
0.341,1.098,-0.330,8.484,10.681,0.732
0.372,1.056,-0.358,7.019,6.409,-0.244
0.374,1.024,-0.233,0.671,-3.723,0.549
0.400,1.009,-0.217,-3.845,-5.737,2.808
0.384,1.028,-0.344,-3.296,-1.953,5.615
0.359,1.063,-0.431,3.418,-1.648,7.263
0.353,1.095,-0.426,14.954,-4.456,7.507
0.350,1.102,-0.409,28.687,-5.859,6.226
0.338,1.086,-0.408,41.504,-5.859,3.845
0.319,1.131,-0.432,50.781,-7.080,2.625
0.317,1.127,-0.411,53.894,-11.841,-0.549
0.312,1.032,-0.300,47.974,-20.264,-5.005
0.317,0.976,-0.125,35.339,-28.320,-5.676
0.304,1.019,-0.061,19.226,-29.541,-2.930
0.289,1.046,-0.119,0.732,-26.367,-1.770
0.279,1.032,-0.183,-16.968,-25.879,-2.930
0.281,0.986,-0.191,-31.372,-28.809,-4.211
0.266,0.885,-0.174,-39.307,-30.273,-4.761

0.093,0.754,-1.886,-252.930,149.414,104.553
0.090,1.018,-1.792,-250.488,128.235,117.310
0.083,1.055,-1.615,-248.230,113.342,114.014
0.076,1.011,-1.611,-249.817,108.887,106.689
0.085,0.970,-1.735,-255.432,113.525,105.652
0.167,0.805,-1.718,-252.502,113.037,103.333
0.316,0.606,-1.529,-248.657,104.431,102.966
0.439,0.530,-1.371,-244.751,97.046,108.643
0.579,0.488,-1.257,-246.826,91.553,116.089
0.685,0.476,-1.171,-250.427,79.956,120.422
0.666,0.312,-1.008,-237.610,65.674,116.760
0.507,0.051,-0.631,-238.281,54.260,112.427
0.294,0.161,-0.393,-227.661,65.369,120.361
0.071,0.470,-0.381,-195.618,97.961,126.404
-0.136,0.634,-0.516,-161.438,131.287,115.112
-0.428,0.666,-0.936,-121.521,161.255,92.773
-0.636,0.422,-1.641,-67.932,183.289,71.106
-0.571,-0.142,-2.272,-28.687,177.612,62.073
-0.468,-1.019,-2.744,-8.667,130.554,73.059
-0.529,-1.710,-2.809,-50.720,46.631,117.859
-0.930,-2.118,-2.146,-101.685,-70.618,198.486
-1.231,-1.699,-0.672,-169.128,-189.880,306.030
-1.477,-0.509,0.604,-230.835,-250.854,410.828
-1.738,0.149,0.938,-268.250,-221.313,446.472
-2.064,0.182,0.627,-295.898,-151.367,429.382
-2.206,0.152,0.447,-312.012,-101.746,409.912
-2.163,0.316,0.396,-308.228,-78.796,399.719
-2.109,0.194,0.333,-299.438,-57.922,379.028
-2.097,0.080,0.271,-299.866,-46.631,356.995
-2.169,-0.054,0.473,-307.800,-50.903,339.600
-2.380,-0.181,0.978,-321.045,-53.467,325.195
-2.526,-0.184,1.284,-333.679,-22.400,312.866
-2.491,-0.081,0.907,-335.144,48.706,297.852
-2.514,-0.079,-0.157,-295.471,132.446,266.357
-2.527,-0.205,-1.278,-233.582,177.002,226.318
-2.484,-0.503,-1.995,-183.289,164.917,189.636
-2.236,-0.398,-2.224,-143.799,116.882,175.354
-1.864,-0.119,-1.906,-93.628,58.044,166.992
-1.559,-0.094,-1.358,-40.894,10.620,141.296
-1.295,-0.043,-1.052,-8.667,-15.137,118.713
-1.006,-0.112,-0.604,-11.047,-41.504,103.333
-0.749,-0.016,0.017,-36.255,-72.327,96.985
-0.561,0.096,0.321,-62.805,-79.651,87.646
-0.469,-0.122,0.188,-79.895,-61.401,60.242
-0.405,-0.390,0.036,-80.017,-47.302,30.273
-0.342,-0.524,-0.032,-71.289,-44.312,7.263
-0.312,-0.901,-0.107,-53.955,-39.429,-15.625
-0.319,-1.230,-0.117,-34.607,-33.997,-29.724
-0.337,-1.177,-0.177,-13.733,-26.855,-23.682
-0.362,-1.051,-0.266,3.418,-19.531,-14.832
-0.407,-0.917,-0.291,11.230,-17.334,-8.545
-0.448,-0.769,-0.349,6.470,-18.738,-3.052
-0.515,-0.738,-0.445,-6.104,-20.630,-1.648
-0.606,-0.702,-0.556,-18.738,-24.963,-1.648
-0.678,-0.768,-0.645,-25.879,-30.701,-3.662
-0.724,-0.891,-0.673,-26.062,-36.926,-6.836
-0.766,-0.927,-0.712,-20.447,-41.870,-6.836
-0.810,-0.972,-0.753,-12.939,-47.058,-6.714
-0.833,-1.016,-0.697,-6.348,-55.664,-6.470
-0.852,-1.054,-0.479,1.709,-65.186,-5.188
-0.858,-1.052,-0.344,13.733,-66.284,-4.333
-0.863,-1.144,-0.357,26.245,-59.570,-4.578
-0.886,-1.094,-0.298,34.668,-56.458,-0.854
-0.937,-0.973,-0.234,38.818,-54.749,4.211
-0.983,-0.951,-0.244,43.579,-48.401,4.028
-1.005,-0.908,-0.227,50.842,-43.213,2.014
-0.958,-0.873,-0.192,55.786,-40.527,1.404
-0.897,-0.905,-0.220,56.824,-38.696,0.854
-0.877,-0.753,-0.298,56.152,-40.527,6.226
-0.882,-0.576,-0.321,48.706,-50.293,11.169
-0.876,-0.519,-0.267,36.011,-63.904,10.254
-0.862,-0.505,-0.158,26.978,-74.463,6.836
-0.831,-0.275,-0.104,25.452,-78.674,5.676
-0.794,-0.146,-0.014,25.146,-79.285,-3.723
-0.735,-0.223,0.086,25.391,-76.782,-23.560
-0.675,-0.317,0.051,33.142,-66.162,-46.265
-0.639,-0.471,-0.100,45.898,-52.002,-68.359
-0.601,-0.685,-0.237,54.443,-43.701,-86.182
-0.563,-0.838,-0.303,58.716,-40.894,-93.689
-0.536,-0.825,-0.354,60.486,-40.649,-91.187
-0.536,-0.777,-0.406,61.218,-40.100,-87.891
-0.535,-0.759,-0.428,63.293,-39.795,-87.524
-0.514,-0.795,-0.435,67.261,-39.673,-87.708
-0.457,-0.619,-0.411,73.547,-39.490,-84.778
-0.443,-0.504,-0.400,80.200,-35.217,-87.585
-0.421,-0.459,-0.432,84.961,-27.039,-98.877
-0.377,-0.462,-0.464,92.346,-18.127,-111.877
-0.305,-0.581,-0.568,101.990,-6.531,-127.380
-0.199,-0.875,-0.709,108.215,3.052,-138.123
-0.152,-1.085,-0.800,104.858,7.324,-135.315
-0.130,-1.079,-0.879,102.234,6.775,-119.141
-0.072,-1.182,-1.027,100.464,8.362,-103.882
-0.045,-1.313,-1.249,107.422,11.292,-89.050
-0.031,-1.201,-1.400,118.225,4.211,-64.514
0.008,-0.938,-1.362,125.305,-14.648,-37.659
0.064,-0.824,-1.131,127.197,-34.485,-23.499
0.114,-0.771,-0.795,124.878,-43.823,-15.320
0.220,-0.524,-0.572,121.399,-37.842,-5.737
0.300,-0.337,-0.572,125.000,-17.212,-6.104
0.343,-0.353,-0.712,127.258,4.639,-19.409
0.368,-0.408,-0.823,123.840,17.639,-32.104
0.344,-0.376,-0.955,120.850,23.010,-39.368
0.282,-0.334,-1.090,114.441,23.987,-45.654
0.207,-0.318,-1.182,108.154,18.372,-50.781
0.146,-0.381,-1.280,106.262,10.681,-54.749
0.116,-0.477,-1.379,114.563,1.892,-55.664
0.089,-0.448,-1.347,125.488,-12.085,-49.866
0.089,-0.337,-1.165,130.676,-27.832,-41.931
0.064,-0.294,-0.948,129.333,-35.461,-38.574
0.072,-0.267,-0.709,118.835,-32.837,-35.278
0.099,-0.127,-0.652,114.624,-17.029,-28.992
0.104,-0.015,-0.792,113.953,4.761,-27.405
0.054,0.013,-0.917,112.366,19.714,-33.081
0.019,0.009,-0.953,111.572,26.733,-39.490
-0.033,-0.025,-1.008,113.342,33.203,-46.265
-0.108,-0.055,-1.118,118.164,40.283,-51.697
-0.203,-0.026,-1.215,121.338,42.358,-53.833
-0.227,0.016,-1.223,117.249,36.682,-52.979
-0.219,0.026,-1.248,107.605,30.212,-52.490

-0.828,-1.594,-1.786,-111.572,116.943,-136.108
-0.719,-1.594,-1.473,-83.496,85.388,-125.000
-0.494,-1.442,-1.118,-61.768,66.528,-105.957
-0.311,-1.428,-0.905,-49.805,67.566,-97.229
-0.173,-1.610,-0.636,-54.382,72.266,-90.210
-0.197,-1.685,-0.569,-67.200,83.923,-70.313
-0.300,-1.610,-0.744,-85.144,101.013,-38.757
-0.460,-1.586,-0.965,-94.971,113.831,-13.306
-0.525,-1.508,-1.058,-97.778,115.906,8.972
-0.531,-1.341,-1.074,-100.281,109.924,30.945
-0.579,-1.279,-1.013,-98.389,100.708,40.039
-0.575,-1.627,-0.774,-84.900,91.431,36.987
-0.596,-1.966,-0.567,-71.167,92.468,48.157
-0.560,-1.937,-0.223,-63.293,97.351,89.783
-0.605,-1.852,-0.032,-66.956,112.122,136.047
-0.824,-1.870,-0.025,-71.106,136.353,172.852
-1.100,-2.028,-0.067,-65.613,158.508,207.092
-1.375,-2.230,-0.325,-56.213,181.885,246.582
-1.590,-2.244,-0.615,-38.391,193.970,297.180
-1.788,-1.823,-0.734,-15.503,179.626,355.591
-1.998,-0.943,-0.771,14.771,145.996,407.715
-2.182,-0.160,-0.941,53.223,105.530,422.852
-2.308,-0.044,-0.800,92.163,51.880,390.320
-2.420,-0.426,-0.215,141.235,-4.028,341.675
-2.525,-0.755,0.118,209.961,-31.372,316.895
-3.064,-1.314,0.198,219.604,-32.043,323.242
-2.969,-1.079,0.982,57.556,-48.767,378.784
-2.734,0.290,0.531,-10.681,-20.386,464.111
-2.562,0.502,-0.187,-18.616,13.184,447.021
-2.458,-0.184,-0.388,-29.114,1.709,376.892
-2.365,-0.426,-0.192,-9.827,-28.015,341.858
-2.135,-0.397,0.217,28.992,-50.415,330.200
-1.941,-0.351,0.181,76.782,-47.607,311.340
-1.866,-0.228,-0.026,115.051,-40.527,289.307
-1.821,-0.044,0.371,127.319,-54.382,275.879
-1.575,0.597,0.780,108.887,-57.068,273.682
-1.443,1.207,0.415,108.948,-14.648,253.662
-1.342,1.119,0.446,97.412,20.203,191.101
-1.108,0.911,0.172,88.989,53.406,131.653
-0.917,0.746,-0.491,91.553,87.036,90.576
-0.785,0.578,-0.814,71.899,78.735,60.974
-0.655,0.325,-0.793,33.997,43.762,38.635
-0.527,-0.005,-0.744,-2.441,13.062,20.752
-0.417,-0.384,-0.744,-25.146,-7.202,5.920
-0.353,-0.800,-0.696,-29.907,-25.513,-4.517
-0.256,-0.990,-0.563,-33.813,-40.894,-4.028
-0.113,-0.938,-0.238,-26.917,-53.040,2.930
-0.010,-0.883,0.173,-12.329,-54.260,3.113
0.057,-0.729,0.295,5.493,-34.973,-3.235
0.063,-0.672,0.048,26.184,-5.737,-16.174
0.032,-0.732,-0.065,39.795,7.141,-33.020
-0.021,-0.684,0.012,45.044,6.836,-42.053
-0.107,-0.692,-0.020,46.814,11.169,-49.377
-0.173,-0.786,-0.245,47.363,20.935,-57.678
-0.217,-0.820,-0.280,42.114,20.020,-59.570
-0.285,-0.672,-0.097,32.288,13.550,-55.847
-0.400,-0.489,-0.098,29.724,20.874,-58.594
-0.535,-0.425,-0.265,35.583,37.292,-73.486
-0.626,-0.372,-0.317,43.457,47.119,-90.759
-0.691,-0.216,-0.208,47.852,51.025,-104.858
-0.721,-0.062,-0.077,49.377,59.448,-121.033
-0.767,-0.151,-0.187,44.556,76.050,-143.616
-0.881,-0.378,-0.469,39.795,91.248,-165.039
-0.983,-0.615,-0.523,27.344,87.524,-174.194
-1.088,-0.604,-0.320,3.601,72.205,-167.297
-1.195,-0.705,-0.124,-23.010,65.369,-163.452
-1.239,-0.708,-0.260,-32.959,74.463,-160.767
-1.285,-0.644,-0.453,-27.405,78.674,-159.424
-1.339,-0.658,-0.309,-34.241,61.584,-162.903
-1.376,-0.726,-0.274,-32.471,47.485,-168.701
-1.360,-0.806,-0.354,-11.414,45.288,-177.612
-1.292,-0.866,-0.358,0.793,37.170,-183.716
-1.186,-0.769,-0.239,5.249,22.583,-181.580
-1.110,-0.674,-0.065,6.470,9.644,-181.885
-1.073,-0.620,-0.004,8.606,5.066,-187.195
-1.130,-0.536,-0.043,8.362,4.700,-192.017
-1.260,-0.431,-0.246,10.681,5.249,-195.312
-1.286,-0.388,-0.479,11.475,4.456,-202.087
-1.186,-0.608,-0.359,15.686,-8.362,-215.088
-1.083,-1.085,-0.049,22.644,-22.827,-229.980
-1.026,-1.331,-0.068,43.579,-16.663,-223.022
-0.990,-1.270,-0.367,51.453,0.366,-192.993
-0.936,-1.166,-0.689,37.109,6.409,-162.659
-0.953,-1.165,-0.933,25.757,-2.563,-143.188
-0.942,-1.153,-1.129,18.555,-19.531,-127.747
-0.908,-0.989,-1.266,21.545,-41.565,-112.366
-0.885,-0.783,-1.276,38.574,-70.862,-106.079
-0.892,-0.699,-1.230,62.561,-99.854,-112.061
-0.853,-0.648,-1.094,85.205,-123.596,-121.826
-0.737,-0.622,-0.928,107.361,-141.663,-130.432
-0.591,-0.678,-0.771,126.526,-150.024,-142.395
-0.436,-0.809,-0.669,146.240,-147.949,-155.701
-0.308,-1.007,-0.618,158.508,-136.902,-162.537
-0.222,-1.149,-0.598,161.194,-123.535,-153.687
-0.137,-1.197,-0.581,149.353,-109.192,-129.822
-0.115,-1.095,-0.654,133.301,-93.018,-96.558
-0.095,-0.870,-0.879,128.662,-73.608,-65.613
-0.126,-0.672,-1.093,130.737,-60.669,-46.326
-0.158,-0.519,-1.089,131.653,-63.232,-36.316
-0.172,-0.341,-0.963,132.568,-69.946,-30.212
-0.152,-0.216,-0.922,136.597,-65.247,-29.541
-0.146,-0.184,-1.086,139.709,-50.964,-36.011
-0.133,-0.281,-1.327,138.062,-40.039,-45.532
-0.156,-0.415,-1.478,128.296,-43.579,-49.988
-0.202,-0.522,-1.515,121.216,-55.664,-45.959
-0.237,-0.625,-1.488,110.840,-67.566,-35.156
-0.254,-0.691,-1.376,97.595,-78.552,-16.785
-0.229,-0.597,-1.190,81.970,-85.327,9.155
-0.215,-0.436,-0.978,76.721,-81.177,33.447
-0.158,-0.285,-0.841,78.125,-65.308,47.241
-0.160,-0.145,-0.915,88.379,-39.429,52.979
-0.170,0.014,-1.029,97.717,-18.188,53.772
-0.196,0.131,-1.162,107.239,-5.493,49.011
-0.239,0.188,-1.284,115.479,-0.305,40.039
-0.281,0.179,-1.354,119.629,-1.404,30.945
-0.323,0.112,-1.382,115.601,-7.324,24.902
-0.354,0.046,-1.372,103.027,-15.137,24.780
-0.378,0.038,-1.328,84.106,-24.109,32.715
-0.392,0.121,-1.312,60.120,-31.860,44.861

0.174,-1.675,0.735,-110.718,-87.769,-66.223
0.183,-1.546,0.511,-99.304,-63.110,-59.387
0.177,-1.477,0.374,-82.764,-53.650,-59.692
0.154,-1.484,0.578,-61.646,-64.941,-64.514
0.062,-1.582,0.920,-43.823,-78.125,-72.815
-0.046,-1.767,1.098,-22.522,-74.646,-79.590
-0.135,-1.836,1.156,26.428,-59.937,-82.458
-0.226,-2.159,1.454,31.799,-35.828,-81.970
-0.334,-2.212,1.567,-25.146,-7.568,-61.462
-0.521,-2.195,1.859,-28.503,17.273,-35.767
-0.691,-2.211,2.674,-32.471,43.579,-19.226
-1.047,-2.329,2.375,56.274,100.830,0.977
-1.302,-2.274,1.803,-6.409,192.322,34.119
-1.513,-1.692,1.118,5.859,256.958,82.275
-1.668,-1.222,0.902,35.034,280.579,113.098
-1.925,-1.228,1.143,56.091,289.856,119.995
-2.262,-1.108,1.217,85.999,321.838,133.423
-2.614,-0.488,0.514,140.564,388.367,170.715
-2.859,0.240,-0.350,196.472,439.331,200.989
-3.047,0.748,-0.838,229.431,440.613,205.933
-3.193,0.853,-1.194,229.736,419.739,193.481
-3.207,0.721,-1.752,215.454,407.898,178.040
-3.162,0.547,-1.967,192.871,375.793,173.035
-3.002,0.474,-1.538,160.217,316.406,177.307
-2.835,0.617,-1.445,137.695,289.612,188.782
-2.650,0.574,-1.886,126.648,301.697,189.758
-2.396,0.645,-2.305,122.681,305.176,190.247
-2.082,1.124,-2.901,142.456,306.396,203.186
-1.837,1.455,-3.868,171.204,313.293,199.280
-1.695,1.475,-4.000,200.562,295.776,169.983
-1.433,1.547,-4.000,230.530,221.802,137.451
-1.178,1.797,-4.000,237.061,73.242,106.812
-0.986,1.678,-2.827,185.974,-117.615,60.913
-0.849,1.250,-0.480,83.557,-245.605,10.376
-0.708,0.884,0.741,-29.846,-251.038,-24.414
-0.617,0.266,0.731,-124.512,-178.894,-55.847
-0.543,-0.493,0.565,-181.885,-124.817,-77.515
-0.493,-0.911,0.769,-186.768,-108.704,-71.106
-0.482,-0.853,0.776,-142.090,-82.703,-46.387
-0.526,-0.508,0.147,-72.815,-35.156,-25.940
-0.607,-0.389,-0.498,-16.541,-5.005,-26.367
-0.666,-0.512,-0.783,12.573,-7.080,-37.964
-0.717,-0.602,-1.037,25.635,-15.625,-41.199
-0.743,-0.708,-1.260,27.588,-24.841,-39.856
-0.716,-0.862,-1.181,18.555,-43.701,-36.194
-0.670,-0.869,-0.807,5.127,-64.941,-24.414
-0.652,-0.555,-0.683,-3.784,-66.040,-6.348
-0.692,-0.339,-0.865,-11.230,-52.856,0.244
-0.735,-0.394,-0.952,-29.419,-51.636,-7.629
-0.786,-0.494,-0.869,-54.443,-62.561,-15.564
-0.842,-0.517,-0.753,-72.021,-72.021,-18.372
-0.902,-0.500,-0.712,-72.449,-75.806,-21.118
-0.943,-0.675,-0.763,-61.584,-77.576,-30.334
-0.962,-0.974,-0.847,-44.128,-81.787,-39.368
-0.984,-1.007,-0.847,-21.362,-93.933,-33.630
-0.949,-0.695,-0.765,-0.671,-109.436,-18.250
-0.889,-0.350,-0.836,13.245,-116.882,-13.123
-0.858,-0.210,-0.890,13.611,-125.488,-24.292
-0.848,-0.210,-0.781,-0.488,-142.700,-41.687
-0.856,-0.156,-0.685,-17.395,-156.677,-54.260
-0.859,-0.045,-0.744,-26.550,-161.377,-64.941
-0.862,-0.053,-0.763,-28.442,-167.480,-81.970
-0.866,-0.254,-0.559,-28.687,-180.908,-103.699
-0.815,-0.669,-0.075,-31.189,-194.031,-123.962
-0.739,-1.095,0.352,-31.677,-191.956,-133.667
-0.704,-1.332,0.422,-24.048,-163.757,-127.380
-0.657,-1.371,0.113,-9.888,-122.803,-108.826
-0.574,-1.288,-0.344,4.456,-91.187,-89.783
-0.479,-1.154,-0.644,15.259,-82.703,-76.233
-0.415,-1.028,-0.555,22.156,-99.182,-68.481
-0.383,-1.001,-0.217,25.574,-121.094,-69.580
-0.335,-1.059,-0.083,31.372,-121.643,-74.402
-0.289,-1.096,-0.171,44.006,-106.018,-75.500
-0.248,-1.053,-0.095,56.152,-98.938,-71.838
-0.211,-1.044,0.131,65.613,-96.619,-69.397
-0.218,-1.043,0.160,77.087,-80.383,-68.604
-0.213,-0.971,-0.025,90.942,-54.382,-65.369
-0.196,-0.965,-0.165,98.389,-37.781,-66.833
-0.194,-1.177,-0.186,96.924,-33.264,-77.271
-0.081,-1.486,-0.204,91.858,-29.724,-86.487
-0.170,-1.780,-0.255,89.355,-21.423,-83.435
-0.106,-1.901,-0.117,99.487,-13.123,-68.726
-0.114,-1.934,-0.338,145.508,-3.296,-46.143
-0.091,-1.760,-0.569,131.104,14.160,-15.442
-0.066,-1.338,-0.702,141.479,19.348,20.264
-0.015,-0.987,-0.644,146.606,13.306,37.231
-0.002,-0.816,-0.505,144.287,8.484,36.011
-0.000,-0.736,-0.406,140.259,13.000,30.396
-0.004,-0.651,-0.465,138.245,28.992,28.381
0.014,-0.565,-0.672,140.015,47.729,25.574
0.026,-0.619,-0.823,134.827,54.688,15.198
0.035,-0.806,-0.855,120.605,49.255,1.404
0.053,-1.007,-0.814,108.093,41.504,-5.249
0.041,-1.141,-0.779,101.746,37.537,-0.793
0.021,-1.121,-0.818,99.487,38.757,14.099
0.029,-0.972,-0.902,101.563,40.955,31.616
0.026,-0.826,-0.961,102.051,38.208,41.687
0.016,-0.754,-0.928,100.647,30.334,43.335
0.003,-0.704,-0.792,99.426,21.790,42.419
-0.005,-0.610,-0.699,102.966,21.729,43.335
-0.014,-0.537,-0.776,109.619,32.837,41.382
-0.047,-0.560,-0.948,114.563,45.776,34.241
-0.054,-0.670,-1.085,117.188,50.293,26.794
-0.056,-0.779,-1.123,119.446,44.189,24.597
-0.064,-0.798,-1.080,120.239,33.020,31.372
-0.068,-0.730,-1.037,119.812,23.804,42.725
-0.069,-0.639,-0.978,118.530,16.968,51.575
-0.064,-0.536,-0.883,113.770,10.864,57.495
-0.075,-0.398,-0.810,108.704,7.202,60.913
-0.097,-0.219,-0.799,103.088,7.874,58.289
-0.113,-0.038,-0.852,101.440,11.292,46.387
-0.133,-0.017,-0.979,106.750,15.564,20.508
-0.102,-0.271,-1.039,108.826,11.536,-16.174
-0.054,-0.701,-0.952,91.064,-1.648,-44.922
-0.047,-1.099,-0.780,64.331,-12.756,-51.208
-0.065,-1.300,-0.646,37.964,-11.841,-33.081
-0.094,-1.178,-0.745,19.958,3.906,2.258
-0.106,-0.832,-1.026,7.446,23.865,37.964
-0.127,-0.556,-1.188,-9.338,29.541,57.556

-0.118,-0.999,-1.743,-67.139,85.693,9.521
-0.069,-0.945,-1.672,-77.332,66.223,21.667
-0.071,-0.880,-1.740,-84.473,56.458,30.701
-0.019,-0.733,-1.854,-91.553,51.392,35.278
0.034,-0.717,-1.953,-104.858,42.053,35.522
0.039,-1.000,-2.057,-122.681,31.189,27.283
0.048,-1.337,-2.196,-130.737,20.813,25.696
0.054,-1.533,-2.179,-133.240,5.432,41.077
0.088,-1.358,-2.235,-139.893,-8.972,74.402
0.170,-1.081,-2.272,-151.001,-23.743,104.126
0.244,-0.807,-2.209,-165.527,-42.175,119.324
0.314,-0.385,-2.094,-184.021,-61.279,127.197
0.411,-0.016,-1.966,-199.890,-79.468,121.643
0.441,0.058,-1.924,-209.106,-93.689,93.018
0.422,-0.075,-1.873,-221.252,-109.924,54.260
0.400,-0.368,-1.740,-241.882,-129.456,19.958
0.392,-0.773,-1.337,-253.540,-150.696,-5.188
0.279,-1.101,-0.982,-262.329,-159.790,-10.071
0.169,-1.284,-0.816,-271.362,-147.278,7.141
0.007,-1.297,-0.720,-259.644,-120.972,34.363
-0.221,-1.146,-0.232,-228.882,-101.379,61.707
-0.531,-0.635,0.335,-187.439,-76.721,91.370
-0.829,0.032,0.432,-135.620,-24.170,112.732
-1.161,0.163,0.211,-73.059,38.452,97.107
-1.453,-0.120,0.105,-16.479,76.233,69.092
-1.725,-0.098,0.048,30.273,93.262,72.510
-1.990,0.417,0.013,73.608,92.102,99.731
-2.261,0.866,0.459,82.825,59.082,103.699
-2.332,1.003,1.438,31.799,8.118,71.045
-2.319,1.015,1.828,-16.296,5.432,24.902
-2.371,0.586,1.441,-46.326,49.133,-37.415
-2.394,-0.573,1.286,-72.632,72.815,-105.774
-2.288,-1.234,1.307,-72.693,79.590,-119.507
-2.168,-0.797,0.751,-40.527,113.953,-73.975
-2.023,-0.517,-0.008,-1.221,148.743,-47.485
-1.900,-0.906,-0.497,18.799,154.663,-57.983
-1.764,-0.962,-0.724,36.621,142.944,-41.260
-1.563,-0.504,-0.996,47.119,129.822,2.075
-1.397,-0.205,-1.299,39.246,114.929,23.865
-1.200,-0.189,-1.400,23.560,83.679,23.193
-0.993,-0.342,-1.158,6.226,39.307,19.287
-0.793,-0.431,-0.772,-9.644,0.183,22.095
-0.680,-0.311,-0.445,-19.531,-24.963,31.006
-0.628,-0.159,-0.001,-29.297,-48.096,32.410
-0.594,-0.259,0.440,-41.321,-61.951,18.677
-0.566,-0.604,0.502,-44.678,-51.819,-0.488
-0.547,-0.885,0.318,-30.151,-32.043,-8.606
-0.516,-0.812,0.166,-7.690,-23.010,-2.136
-0.497,-0.619,0.034,7.874,-20.752,4.761
-0.496,-0.612,0.012,12.878,-23.743,1.343
-0.529,-0.652,0.081,12.695,-29.053,-3.906
-0.584,-0.592,0.150,10.803,-29.602,-4.517
-0.632,-0.562,0.189,8.179,-22.827,-6.836
-0.677,-0.631,0.059,5.554,-7.263,-12.878
-0.736,-0.697,-0.252,1.282,9.766,-16.174
-0.794,-0.721,-0.556,-6.226,15.564,-15.259
-0.883,-0.846,-0.651,-16.235,6.348,-15.869
-0.974,-0.963,-0.481,-22.339,-8.911,-14.404
-1.048,-0.913,-0.368,-16.418,-12.939,-5.554
-1.127,-0.770,-0.445,-2.258,-5.554,3.052
-1.182,-0.698,-0.398,8.850,-4.028,4.944
-1.224,-0.733,-0.283,19.653,-7.141,1.160
-1.262,-0.747,-0.169,30.640,-7.202,-1.221
-1.307,-0.769,-0.128,43.701,-5.676,-1.648
-1.325,-0.797,-0.053,52.979,-6.836,-1.160
-1.344,-0.877,0.104,56.458,-11.963,0.977
-1.352,-0.997,0.224,59.509,-13.123,5.615
-1.330,-1.011,0.048,66.956,-4.333,18.738
-1.289,-0.904,-0.194,80.750,0.000,35.400
-1.193,-0.752,-0.154,90.271,-13.611,48.157
-1.109,-0.544,0.019,98.938,-32.410,56.091
-1.020,-0.293,0.169,106.934,-41.443,59.387
-0.930,-0.099,0.301,106.873,-43.518,54.443
-0.860,0.004,0.242,106.934,-36.377,41.809
-0.802,0.054,-0.001,107.178,-25.513,26.184
-0.768,0.063,-0.226,106.262,-24.231,9.094
-0.710,-0.012,-0.276,101.563,-35.767,-8.362
-0.637,-0.179,-0.307,98.633,-46.387,-24.841
-0.548,-0.348,-0.487,100.098,-47.729,-36.499
-0.487,-0.516,-0.746,99.243,-46.631,-43.457
-0.407,-0.693,-0.898,105.896,-54.932,-49.011
-0.273,-0.935,-1.031,120.789,-64.270,-51.392
-0.208,-1.153,-1.149,139.771,-78.308,-47.668
-0.154,-1.355,-0.919,141.357,-102.539,-34.607
-0.092,-1.333,-0.488,131.775,-126.770,-5.249
-0.004,-0.989,-0.283,130.188,-124.451,33.325
0.035,-0.567,-0.345,133.850,-103.027,59.631
0.080,-0.250,-0.553,137.207,-82.214,65.796
0.134,0.048,-0.686,137.085,-72.693,61.096
0.215,0.231,-0.723,131.104,-71.472,44.983
0.247,0.301,-0.797,122.070,-68.176,18.372
0.232,0.177,-0.927,122.253,-62.134,-12.207
0.307,-0.049,-1.058,107.971,-59.082,-35.828
0.360,-0.272,-1.221,97.046,-58.594,-48.035
0.393,-0.471,-1.251,80.261,-67.078,-51.575
0.484,-0.739,-0.925,59.631,-86.304,-50.903
0.539,-1.090,-0.350,48.218,-97.656,-48.767
0.546,-1.356,-0.026,64.758,-75.073,-39.917
0.504,-1.418,-0.123,80.994,-23.743,-15.015
0.479,-1.180,-0.481,76.050,26.550,20.935
0.447,-0.901,-0.781,64.453,57.495,48.035
0.361,-0.666,-1.004,48.340,71.045,58.167
0.264,-0.475,-1.197,41.382,77.393,58.044
0.193,-0.360,-1.385,42.847,78.369,50.049
0.115,-0.298,-1.557,49.622,73.669,38.513
0.059,-0.259,-1.653,56.030,62.256,27.466
0.016,-0.292,-1.737,54.688,48.523,17.822
-0.016,-0.312,-1.834,44.556,34.424,12.390
-0.031,-0.287,-1.919,29.846,16.724,11.780
-0.054,-0.282,-1.903,12.878,-7.202,10.254
-0.070,-0.259,-1.677,-5.005,-36.011,8.606
-0.080,-0.271,-1.345,-20.691,-57.678,6.287
-0.066,-0.311,-0.998,-34.729,-64.880,1.831
-0.052,-0.254,-0.896,-42.419,-53.772,0.916
-0.055,-0.290,-0.983,-45.349,-33.997,-3.174
-0.056,-0.453,-1.020,-52.429,-22.522,-11.292
-0.082,-0.550,-1.058,-57.312,-15.869,-14.221
-0.131,-0.556,-1.142,-58.838,-10.254,-11.353
-0.163,-0.525,-1.263,-58.228,-7.080,-8.606

0.534,-1.515,0.679,-235.718,-86.853,26.245
0.581,-1.479,0.813,-252.319,-87.341,34.729
0.662,-1.402,1.085,-262.329,-89.783,42.053
0.757,-1.364,1.263,-259.766,-81.543,44.006
0.844,-1.304,1.253,-253.479,-63.049,46.265
0.930,-1.159,1.212,-251.160,-47.546,51.453
0.993,-1.071,1.201,-252.869,-40.710,54.810
1.074,-1.138,1.206,-250.671,-37.170,53.650
1.140,-1.330,1.257,-247.375,-34.180,53.589
1.126,-1.437,1.328,-241.699,-30.396,64.880
0.954,-1.211,1.357,-227.173,-21.851,89.233
0.830,-0.535,1.698,-239.258,-13.184,114.502
0.783,-0.282,1.389,-260.254,21.301,114.563
0.630,-0.565,0.727,-268.005,57.556,91.797
0.511,-0.599,0.597,-285.706,52.307,89.050
0.319,-0.458,0.407,-300.293,40.771,101.013
0.074,-0.261,0.055,-306.396,32.166,114.258
-0.110,-0.266,-0.235,-305.298,9.766,121.582
-0.411,-0.515,-0.431,-293.152,-22.888,122.070
-0.760,-0.474,-0.241,-282.532,-65.613,135.071
-1.149,-0.448,0.179,-280.090,-103.088,146.729
-1.487,-0.563,0.182,-300.476,-106.140,147.644
-1.800,-0.397,-0.247,-299.438,-81.787,157.532
-2.124,0.495,-0.549,-295.532,-73.181,168.762
-2.200,0.990,-0.623,-284.119,-89.539,135.132
-2.194,0.565,-0.435,-261.047,-114.014,43.152
-2.283,0.548,0.022,-170.593,-148.987,-41.321
-2.180,0.208,1.469,-124.695,-183.228,-121.704
-2.150,-0.860,2.210,-76.660,-172.424,-211.548
-1.928,-2.343,2.964,-26.123,-135.742,-283.081
-1.684,-3.724,3.108,147.034,-77.271,-298.889
-1.279,-4.000,3.779,203.613,2.502,-264.587
-1.270,-4.000,3.577,177.856,120.728,-217.285
-1.087,-4.000,2.312,123.108,270.691,-66.711
-0.655,-2.517,-0.551,126.038,405.579,95.459
-0.091,-0.876,-3.843,85.205,460.388,174.500
0.235,0.048,-4.000,-13.855,338.867,175.232
0.141,0.575,-4.000,-127.686,83.679,136.047
-0.239,0.255,-1.802,-227.112,-145.569,80.200
-0.598,0.095,0.189,-253.052,-234.375,60.242
-0.876,0.366,1.278,-233.765,-219.421,69.397
-1.003,0.783,2.249,-206.360,-185.120,75.439
-0.926,0.887,2.967,-171.082,-135.437,61.768
-0.832,0.424,2.836,-118.042,-50.720,28.748
-0.678,0.189,2.260,-57.495,26.245,16.235
-0.521,0.266,1.709,-7.629,71.960,19.653
-0.329,0.159,1.270,13.123,93.445,11.475
-0.143,-0.301,0.827,19.165,102.234,-4.578
-0.030,-0.551,0.507,22.156,97.290,-4.456
0.031,-0.567,0.357,18.127,80.139,8.057
0.040,-0.777,0.232,0.549,61.218,13.367
0.021,-0.884,0.285,-23.499,38.330,21.240
-0.027,-0.613,0.539,-42.969,15.320,39.368
-0.074,-0.343,0.649,-51.392,5.188,51.270
-0.121,-0.194,0.754,-49.622,1.282,50.842
-0.166,-0.053,0.914,-41.077,-2.686,47.913
-0.214,0.028,0.990,-27.344,0.122,42.053
-0.251,0.085,1.066,-7.263,5.066,33.997
-0.292,0.091,1.132,16.541,10.742,24.170
-0.337,0.037,1.172,37.170,18.372,12.146
-0.359,-0.180,1.197,46.509,25.635,-2.075
-0.365,-0.525,1.237,50.537,33.447,-11.841
-0.349,-0.630,1.249,62.378,43.701,-7.996
-0.329,-0.574,1.021,85.693,59.387,2.869
-0.313,-0.599,0.709,110.107,70.313,9.583
-0.291,-0.625,0.633,123.108,64.819,13.062
-0.265,-0.651,0.502,129.089,57.190,17.822
-0.270,-0.720,0.306,134.277,50.354,22.827
-0.295,-0.855,0.361,135.315,32.654,28.137
-0.386,-0.790,0.679,129.883,12.329,34.485
-0.381,-0.320,0.981,116.821,6.348,45.288
-0.300,-0.385,0.829,104.858,20.569,34.058
-0.219,-0.819,0.638,95.581,29.602,13.184
-0.149,-0.898,0.663,102.234,24.475,17.761
-0.106,-0.556,0.657,124.634,21.179,37.842
-0.093,-0.236,0.505,142.578,21.606,46.814
-0.069,-0.194,0.431,150.879,14.771,36.438
-0.053,-0.378,0.470,158.936,0.854,20.142
-0.069,-0.532,0.571,171.265,-10.986,12.329
-0.113,-0.578,0.710,183.838,-17.822,10.986
-0.027,-0.795,0.750,183.472,-17.578,6.470
-0.025,-1.213,0.796,179.321,-15.625,3.479
0.048,-1.177,1.064,180.115,-19.470,21.362
0.087,-0.815,1.080,185.730,-10.376,49.866
0.140,-0.387,0.877,186.707,3.662,64.697
0.220,-0.173,0.722,186.707,6.897,59.448
0.322,-0.270,0.604,189.636,1.892,39.978
0.388,-0.415,0.451,188.293,-5.127,24.902
0.432,-0.341,0.359,168.457,-17.761,22.278
0.446,-0.319,0.296,145.020,-33.447,19.775
0.427,-0.540,0.271,137.390,-53.772,15.381
0.521,-0.773,0.523,127.991,-81.848,20.447
0.463,-0.871,0.760,163.574,-99.854,36.133
0.371,-0.702,1.045,213.562,-101.807,56.458
0.294,-0.441,1.384,253.662,-93.445,70.313
0.309,-0.330,1.448,289.062,-66.101,72.083
0.233,-0.269,1.410,313.416,-34.302,68.665
0.208,-0.474,1.084,318.909,-8.911,63.599
0.334,-0.579,1.111,328.674,0.671,67.017
0.270,-0.516,1.426,349.121,5.493,77.209
0.411,-0.565,1.387,370.667,41.382,78.186
0.373,-0.831,0.971,385.681,91.431,69.946
0.442,-0.983,0.585,393.921,120.972,72.266
0.543,-1.024,0.332,367.615,127.563,80.933
0.611,-0.797,0.053,331.177,128.479,90.698
0.536,-0.621,-0.219,299.927,120.117,86.487
0.564,-0.682,-0.183,252.319,92.651,62.134
0.571,-1.026,-0.057,209.961,64.392,32.715
0.556,-1.366,0.145,173.157,47.913,15.808
0.609,-1.615,0.375,148.376,40.894,13.855
0.562,-1.703,0.347,137.146,52.795,23.804
0.490,-1.431,0.175,133.606,71.167,48.828
0.509,-0.984,0.044,128.418,79.285,66.528
0.510,-1.082,-0.199,117.737,82.214,51.697
0.573,-1.310,-0.279,100.098,77.820,34.363
0.584,-1.334,-0.368,76.111,71.594,36.255
0.570,-1.127,-0.552,57.800,71.106,46.143
0.563,-0.923,-0.630,40.955,64.514,48.157
0.577,-0.892,-0.654,22.339,50.964,37.659

0.615,0.208,-1.851,452.698,152.039,-55.786
0.629,-0.240,-1.460,395.386,93.933,-91.797
0.604,-0.659,-1.030,378.418,62.622,-99.060
0.631,-0.824,-0.780,370.361,65.247,-79.834
0.614,-0.691,-0.989,374.695,93.567,-51.880
0.567,-0.389,-1.411,415.100,123.596,-28.625
0.496,-0.116,-1.326,459.412,128.174,-18.433
0.510,0.009,-0.990,527.344,126.831,-19.409
0.539,0.125,-0.840,593.323,145.691,-19.653
0.509,0.300,-0.937,634.094,182.312,-22.949
0.421,0.649,-1.092,648.499,214.783,-24.658
0.423,0.894,-1.228,668.823,234.802,-31.006
0.385,1.049,-1.257,675.720,242.187,-38.086
0.288,0.894,-1.200,635.132,243.835,-45.593
0.239,0.925,-1.156,535.461,248.962,-37.476
0.146,1.316,-1.292,464.233,256.531,-15.503
0.085,1.533,-1.402,409.058,254.028,-6.958
0.094,1.456,-1.087,369.141,238.281,-23.315
0.139,1.049,-1.076,310.608,226.501,-49.255
0.214,0.813,-0.719,306.824,220.642,-58.777
0.092,0.904,-0.701,256.775,215.210,-45.959
0.088,1.185,-0.807,307.495,225.769,-34.668
0.070,0.970,-0.749,319.031,217.285,-43.823
0.009,0.495,-0.594,306.091,196.228,-58.289
0.001,0.553,-0.641,294.067,180.420,-42.419
-0.073,0.559,-0.898,270.508,166.321,-29.236
-0.188,0.476,-1.112,239.380,137.085,-31.006
-0.340,0.394,-1.024,211.914,90.454,-29.785
-0.348,0.335,-0.767,192.932,42.419,-26.672
-0.426,0.232,-0.448,185.486,4.211,-30.579
-0.574,0.358,-0.194,190.247,-19.348,-34.241
-0.706,0.557,0.060,212.097,-33.691,-43.640
-0.775,0.604,0.421,248.108,-43.457,-69.580
-0.811,0.499,0.614,288.635,-41.504,-103.088
-0.845,0.143,0.649,317.078,-31.372,-140.991
-0.911,-0.090,0.705,328.796,-29.968,-170.105
-0.997,-0.099,0.711,326.111,-35.583,-186.523
-1.013,-0.240,0.863,314.087,-48.950,-206.360
-1.020,-0.452,1.227,288.330,-72.083,-227.661
-1.110,-0.379,1.398,260.986,-79.834,-237.305
-1.072,-0.713,1.446,250.427,-71.350,-251.221
-0.957,-1.520,1.423,250.366,-68.848,-269.714
-0.728,-1.863,1.434,257.874,-59.082,-244.202
-0.484,-1.915,1.345,296.204,-53.223,-195.618
-0.233,-1.445,1.687,304.321,-60.547,-142.395
-0.022,-1.206,2.236,273.315,-76.843,-106.934
0.109,-1.262,2.542,242.798,-67.017,-90.271
0.216,-1.066,2.549,202.942,-36.560,-60.852
0.242,-0.735,2.412,148.926,-7.202,-26.611
0.191,-0.409,2.252,92.163,10.681,-2.075
0.077,0.032,2.063,41.687,24.719,16.479
-0.008,0.416,1.693,7.385,42.114,24.353
-0.068,0.360,1.292,-12.878,56.702,13.733
-0.081,0.164,1.049,-24.780,59.937,2.686
-0.099,0.064,0.876,-33.630,58.716,3.235
-0.125,0.065,0.734,-39.368,55.725,9.460
-0.146,0.133,0.680,-43.213,48.828,16.785
-0.188,0.279,0.804,-47.607,38.452,22.156
-0.186,0.221,0.974,-51.636,31.738,20.142
-0.204,0.218,1.076,-51.697,32.349,19.775
-0.222,0.337,1.121,-51.392,37.415,22.949
-0.251,0.417,1.188,-53.528,40.894,20.203
-0.276,0.382,1.234,-56.519,44.189,11.353
-0.295,0.284,1.224,-59.937,48.096,2.136
-0.313,0.227,1.230,-68.115,49.011,-3.357
-0.314,0.207,1.208,-80.322,47.546,-6.897
-0.307,0.210,1.178,-95.703,45.044,-11.230
-0.386,0.146,1.261,-110.962,38.452,-16.052
-0.360,-0.207,1.643,-112.000,28.931,-22.095
-0.272,-0.401,2.052,-106.750,31.128,-15.381
-0.242,-0.312,2.027,-100.586,61.340,4.150
-0.236,-0.294,1.666,-94.421,97.839,15.625
-0.252,-0.296,1.519,-97.473,112.549,18.860
-0.289,-0.243,1.480,-102.173,116.516,22.034
-0.313,-0.138,1.284,-109.924,125.000,24.780
-0.250,0.009,0.965,-121.643,131.287,28.381
-0.188,0.094,0.657,-144.287,127.563,27.466
-0.181,0.113,0.447,-173.035,112.854,20.874
-0.187,0.085,0.400,-194.153,90.210,14.893
-0.231,0.030,0.483,-203.552,67.749,13.672
-0.165,0.043,0.649,-202.332,50.720,19.287
-0.153,0.070,0.847,-199.158,44.250,28.259
-0.060,-0.054,1.106,-186.707,48.218,32.654
-0.019,-0.010,1.139,-163.391,68.665,43.396
0.001,0.353,0.791,-133.240,105.652,61.340
0.063,0.663,0.375,-109.680,130.188,66.650
0.083,0.659,0.090,-109.558,130.981,54.871
0.137,0.612,-0.010,-133.850,115.845,43.640
0.159,0.573,-0.104,-155.151,99.670,38.818
0.199,0.594,-0.237,-169.739,88.623,41.443
0.202,0.578,-0.378,-177.612,77.515,44.250
0.199,0.604,-0.515,-177.917,64.819,47.668
0.238,0.747,-0.529,-167.480,47.607,53.833
0.258,0.931,-0.426,-155.823,28.076,55.115
0.298,1.041,-0.375,-144.165,17.700,47.485
0.328,0.975,-0.483,-126.587,16.968,33.752
0.385,0.935,-0.516,-108.337,14.648,24.780
0.408,0.987,-0.437,-93.079,6.104,23.560
0.405,1.042,-0.486,-85.388,6.836,22.095
0.404,1.101,-0.717,-79.895,16.724,19.470
0.416,1.143,-1.000,-77.393,21.057,15.991
0.446,1.106,-1.223,-71.899,11.963,8.850
0.476,0.968,-1.250,-60.547,-11.780,-0.732
0.505,0.813,-1.113,-44.922,-43.091,-6.226
0.538,0.795,-0.992,-32.288,-66.711,-4.089
0.551,0.844,-0.874,-30.396,-86.304,-0.793
0.591,0.872,-0.625,-43.030,-108.398,-1.282
0.616,0.863,-0.297,-68.848,-127.686,-4.639
0.606,0.890,-0.102,-101.929,-131.714,-6.348
0.576,1.103,-0.177,-128.357,-118.774,-3.296
0.522,1.455,-0.472,-147.705,-99.915,-1.831
0.498,1.700,-0.689,-162.415,-94.421,-15.503
0.455,1.709,-0.706,-171.692,-105.164,-44.434
0.410,1.434,-0.615,-170.959,-124.390,-86.670
0.452,1.183,-0.500,-171.631,-135.193,-116.516
0.449,1.062,-0.448,-176.697,-135.742,-124.329
0.455,0.900,-0.357,-166.443,-135.742,-127.441
0.517,0.757,-0.218,-150.024,-137.146,-125.305
0.571,0.707,-0.119,-132.141,-132.324,-116.577

0.684,1.125,-0.991,-37.903,2.197,3.296
0.663,1.078,-0.875,-17.883,-28.320,-10.071
0.655,0.965,-0.632,-9.277,-54.077,-21.545
0.651,0.915,-0.350,-5.981,-68.542,-24.597
0.660,0.881,-0.121,-6.042,-70.496,-25.146
0.661,0.754,-0.035,-10.071,-60.242,-26.978
0.660,0.657,-0.011,-14.038,-47.058,-24.475
0.652,0.684,0.020,-17.517,-36.255,-13.611
0.647,0.744,0.000,-16.174,-24.414,-3.967
0.640,0.765,-0.057,-13.794,-13.733,0.122
0.626,0.788,-0.112,-9.399,-7.080,2.686
0.606,0.805,-0.132,-1.892,-4.822,4.578
0.598,0.859,-0.144,8.972,-4.089,6.653
0.586,0.957,-0.264,20.325,0.061,8.850
0.564,0.977,-0.431,28.809,2.258,5.920
0.552,0.885,-0.473,30.884,-6.287,-1.465
0.547,0.802,-0.332,27.222,-22.583,-3.296
0.548,0.832,-0.068,23.499,-35.706,1.587
0.549,0.913,0.195,20.325,-37.964,5.981
0.550,0.892,0.339,16.113,-26.672,2.869
0.541,0.779,0.329,11.414,-6.897,-3.052
0.531,0.680,0.194,5.249,13.550,-4.028
0.513,0.683,-0.000,0.000,29.358,0.488
0.507,0.781,-0.187,-3.174,36.499,6.104
0.506,0.850,-0.342,-4.700,35.828,6.958
0.508,0.813,-0.425,-5.859,28.320,2.319
0.510,0.763,-0.424,-6.470,16.968,-0.854
0.514,0.787,-0.328,-5.188,5.310,0.732
0.520,0.826,-0.184,-1.709,-2.991,1.709
0.524,0.816,-0.090,1.831,-4.211,-1.038
0.529,0.772,-0.099,2.991,0.488,-4.272
0.528,0.779,-0.156,2.258,5.920,-4.578
0.527,0.775,-0.175,-0.427,7.019,-4.700
0.531,0.748,-0.163,-4.639,6.592,-5.493
0.532,0.779,-0.197,-9.338,8.606,-3.967
0.523,0.822,-0.287,-14.893,11.841,-2.136
0.523,0.840,-0.347,-22.522,10.559,-3.479
0.526,0.863,-0.376,-28.870,6.104,-4.639
0.520,0.857,-0.430,-31.433,2.075,-6.897
0.522,0.787,-0.448,-29.053,-3.601,-11.230
0.529,0.725,-0.340,-21.240,-13.855,-12.817
0.547,0.755,-0.144,-11.963,-22.522,-9.888
0.561,0.812,-0.027,-5.676,-20.996,-7.629
0.560,0.809,-0.073,-5.005,-10.193,-9.827
0.561,0.781,-0.213,-8.728,-0.366,-12.634
0.560,0.753,-0.356,-13.855,3.418,-13.672
0.563,0.741,-0.485,-22.156,1.587,-13.123
0.572,0.769,-0.575,-32.898,-3.357,-11.536
0.580,0.796,-0.507,-46.082,-14.160,-11.169
0.602,0.777,-0.232,-58.105,-28.076,-13.794
0.625,0.739,0.037,-63.721,-31.433,-16.846
0.650,0.688,0.111,-57.861,-18.921,-17.395
0.644,0.702,-0.119,-45.532,2.869,-14.954
0.643,0.767,-0.464,-35.828,18.738,-12.878
0.652,0.805,-0.584,-32.532,13.489,-14.771
0.663,0.797,-0.453,-37.109,-2.930,-19.775
0.682,0.806,-0.303,-42.053,-11.292,-23.560
0.683,0.791,-0.266,-45.227,-7.507,-27.710
0.692,0.641,-0.245,-44.495,-3.784,-35.278
0.699,0.516,-0.216,-44.189,-1.526,-38.086
0.700,0.603,-0.267,-42.542,4.822,-30.396
0.706,0.790,-0.405,-41.138,12.939,-23.621
0.701,0.823,-0.497,-43.823,13.855,-29.480
0.692,0.679,-0.473,-48.218,6.775,-42.236
0.692,0.534,-0.413,-49.500,1.038,-49.805
0.684,0.505,-0.418,-48.157,1.648,-48.035
0.687,0.563,-0.468,-45.898,5.371,-42.908
0.692,0.614,-0.443,-45.227,4.944,-40.100
0.690,0.559,-0.345,-47.668,2.686,-41.870
0.685,0.425,-0.328,-53.833,7.996,-45.044
0.693,0.332,-0.390,-54.871,17.151,-42.358
0.686,0.347,-0.532,-50.171,25.208,-33.081
0.687,0.296,-0.670,-46.875,27.832,-27.466
0.736,0.251,-0.740,-44.922,22.156,-23.437
0.746,0.390,-0.690,-46.631,13.184,-17.883
0.783,0.406,-0.579,-53.711,4.944,-20.386
0.832,0.336,-0.531,-57.678,4.150,-26.489
0.878,0.333,-0.505,-57.129,7.080,-28.259
0.919,0.398,-0.554,-56.335,11.108,-28.687
0.964,0.392,-0.669,-62.378,17.700,-34.424
1.006,0.263,-0.685,-75.439,19.104,-45.654
1.081,0.162,-0.629,-94.360,18.188,-53.223
1.148,0.076,-0.600,-104.614,22.888,-58.167
1.214,-0.017,-0.859,-109.253,38.513,-63.965
1.263,-0.106,-1.270,-111.938,52.917,-69.580
1.361,-0.226,-1.424,-120.544,43.396,-76.416
1.455,-0.328,-1.322,-130.310,18.494,-82.947
1.505,-0.522,-1.182,-136.902,-2.075,-92.163
1.545,-0.860,-1.060,-144.836,-12.634,-104.004
1.600,-1.230,-0.945,-150.513,-16.418,-109.314
1.645,-1.374,-0.902,-148.071,-13.245,-96.619
1.649,-1.258,-1.036,-151.550,-2.136,-74.463
1.606,-1.192,-1.226,-164.368,7.568,-64.514
1.455,-1.375,-1.289,-182.861,3.906,-69.336
1.325,-1.619,-1.176,-206.909,-9.888,-69.092
1.125,-1.669,-1.082,-216.980,-24.902,-52.979
0.869,-1.606,-1.222,-214.844,-35.583,-26.917
0.565,-1.521,-1.293,-191.345,-57.068,0.427
0.275,-1.232,-0.791,-170.654,-103.760,34.912
0.034,-0.728,0.176,-158.691,-151.428,72.571
-0.145,-0.086,1.120,-155.273,-160.889,105.530
-0.322,0.466,1.575,-157.410,-113.708,122.498
-0.509,0.924,1.349,-166.443,-25.696,124.451
-0.668,1.502,0.257,-168.823,72.632,121.582
-0.933,1.723,-1.129,-158.752,142.212,108.093
-1.252,1.343,-1.661,-128.113,128.113,83.923
-1.567,0.618,-1.128,-78.369,56.702,78.369
-1.826,0.142,-0.279,-22.705,9.766,117.981
-1.905,0.372,0.036,28.687,25.635,199.036
-1.751,1.504,-0.521,64.209,83.740,293.823
-1.404,2.468,-1.289,74.707,135.132,356.934
-0.868,3.215,-1.879,63.538,156.738,376.831
-0.143,3.630,-2.604,47.424,165.771,334.778
0.530,3.573,-3.733,20.447,174.255,284.058
0.983,3.423,-4.000,12.878,138.062,238.586
1.138,3.402,-3.999,20.691,24.353,204.163
1.040,3.767,-2.798,38.940,-103.333,174.072
0.840,4.000,-1.048,52.246,-195.984,126.648
0.553,4.000,0.976,39.063,-248.901,36.621

-0.309,1.899,3.211,-72.449,-103.271,-221.619
-0.837,0.141,1.761,-122.070,85.449,-310.852
-1.139,-1.304,-0.055,-142.456,215.759,-338.135
-1.120,-2.445,-1.271,-135.132,227.844,-306.274
-0.897,-2.670,-1.941,-100.830,171.631,-222.717
-0.610,-1.864,-2.169,-54.321,96.252,-95.093
-0.326,-0.799,-1.927,-14.404,24.780,-3.235
-0.105,-0.541,-1.551,3.601,-22.217,19.653
0.136,-0.435,-1.344,9.216,-39.673,30.396
0.374,0.214,-1.191,14.709,-47.180,60.608
0.558,0.829,-0.940,21.057,-57.251,77.515
0.706,1.279,-0.729,20.630,-58.350,69.824
0.787,1.807,-0.697,10.803,-45.105,54.077
0.814,2.227,-0.677,-10.376,-28.748,27.588
0.729,2.381,-0.657,-34.790,-13.062,-14.771
0.534,2.005,-0.741,-52.002,4.944,-81.604
0.341,1.213,-0.940,-62.195,20.508,-136.719
0.185,0.816,-1.194,-59.509,27.466,-149.414
0.052,0.627,-1.402,-51.270,25.513,-140.442
-0.045,0.352,-1.443,-46.997,14.771,-132.751
-0.085,0.284,-1.462,-41.870,4.028,-115.784
-0.100,0.507,-1.584,-35.706,-1.343,-89.966
-0.098,0.673,-1.551,-28.137,-13.184,-73.669
-0.058,0.812,-1.325,-20.264,-30.945,-66.528
-0.025,0.935,-1.025,-10.925,-42.175,-64.026
0.026,0.814,-0.766,-2.869,-43.823,-72.388
0.087,0.677,-0.674,2.441,-34.546,-80.994
0.120,0.648,-0.739,8.057,-21.545,-83.801
0.127,0.515,-0.826,10.620,-12.817,-90.088
0.132,0.277,-0.765,9.888,-13.062,-98.694
0.134,0.167,-0.640,8.972,-15.198,-99.976
0.160,-0.001,-0.576,7.629,-11.658,-98.816
0.219,-0.087,-0.500,10.071,-8.240,-93.201
0.307,0.036,-0.477,18.188,-4.639,-82.092
0.389,0.092,-0.534,26.184,0.061,-79.651
0.428,-0.046,-0.520,29.846,2.014,-88.318
0.458,-0.275,-0.490,30.823,3.845,-97.107
0.474,-0.443,-0.674,31.250,13.489,-96.497
0.486,-0.572,-0.869,28.259,19.165,-90.820
0.501,-0.660,-0.865,23.437,12.024,-81.665
0.536,-0.681,-0.713,18.311,2.197,-68.359
0.587,-0.689,-0.540,13.855,-2.563,-54.810
0.656,-0.606,-0.501,13.245,-1.831,-42.419
0.734,-0.545,-0.524,12.695,-0.671,-35.767
0.791,-0.520,-0.480,10.803,-3.723,-35.217
0.801,-0.540,-0.371,10.132,-6.836,-36.926
0.759,-0.772,-0.262,3.967,-4.211,-42.236
0.754,-1.143,-0.227,-7.263,5.493,-44.006
0.775,-1.259,-0.385,-16.602,22.278,-28.137
0.795,-1.116,-0.617,-19.104,32.959,-2.197
0.805,-1.048,-0.739,-12.756,27.832,15.076
0.850,-1.076,-0.691,0.000,11.780,26.367
0.898,-0.953,-0.549,17.761,-3.418,43.213
0.927,-0.733,-0.451,34.912,-10.071,58.899
0.945,-0.627,-0.406,40.771,-7.568,63.782
0.994,-0.475,-0.408,34.912,0.671,65.674
1.026,-0.185,-0.540,22.888,15.198,66.833
1.036,-0.038,-0.699,5.432,27.405,55.176
0.999,-0.155,-0.779,-14.343,31.677,33.020
0.964,-0.378,-0.834,-29.907,32.410,15.930
0.924,-0.421,-0.948,-34.302,33.142,14.587
0.884,-0.455,-1.058,-33.081,28.809,18.005
0.839,-0.558,-1.034,-28.137,15.808,20.813
0.808,-0.626,-0.906,-17.761,0.061,29.419
0.810,-0.529,-0.772,-2.319,-10.986,44.128
0.799,-0.361,-0.705,15.564,-15.930,58.594
0.790,-0.321,-0.684,30.823,-17.456,64.758
0.789,-0.217,-0.676,41.382,-17.883,70.862
0.800,-0.000,-0.616,44.678,-16.663,77.820
0.831,0.223,-0.629,36.621,-8.850,77.209
0.844,0.395,-0.835,18.555,5.798,66.528
0.830,0.374,-1.032,-2.808,13.855,46.448
0.800,0.186,-1.037,-20.020,8.301,25.208
0.783,0.032,-0.930,-29.602,-1.648,13.184
0.757,0.005,-0.923,-31.189,-4.089,11.536
0.739,-0.063,-0.910,-28.503,-5.920,9.827
0.735,-0.115,-0.814,-21.301,-12.207,9.521
0.737,-0.047,-0.762,-10.620,-15.625,14.343
0.720,-0.014,-0.786,-1.587,-15.381,15.625
0.706,-0.102,-0.737,4.333,-17.822,11.841
0.706,-0.115,-0.595,8.484,-20.386,12.939
0.732,0.060,-0.532,7.751,-15.015,19.043
0.745,0.239,-0.565,4.028,-3.662,19.348
0.745,0.236,-0.618,-2.625,6.165,9.338
0.734,0.184,-0.703,-11.169,13.062,-1.038
0.718,0.160,-0.804,-18.188,16.785,-6.592
0.696,0.065,-0.871,-20.691,16.113,-12.207
0.688,-0.014,-0.872,-20.264,11.780,-14.954
0.686,0.020,-0.861,-17.334,7.629,-11.780
0.678,0.010,-0.871,-13.855,4.150,-10.376
0.672,-0.053,-0.872,-9.033,-0.916,-10.803
0.665,-0.068,-0.836,-3.113,-6.714,-7.812
0.668,-0.029,-0.740,3.052,-12.146,-2.686
0.672,0.035,-0.626,4.333,-12.939,1.404
0.683,0.087,-0.530,0.000,-8.423,2.563
0.697,0.128,-0.508,-6.775,0.427,1.770
0.698,0.186,-0.551,-11.108,10.803,-0.122
0.690,0.198,-0.600,-12.268,16.724,-4.333
0.672,0.148,-0.714,-11.902,20.874,-9.521
0.650,0.079,-0.863,-11.780,22.095,-13.428
0.632,-0.016,-0.891,-11.475,16.479,-14.404
0.632,-0.051,-0.803,-9.888,7.568,-10.803
0.641,0.014,-0.814,-6.104,4.883,-4.700
0.637,0.089,-0.875,-2.747,3.967,-2.258
0.627,0.024,-0.799,0.122,-2.258,-4.028
0.631,-0.034,-0.633,2.563,-7.141,-4.089
0.646,0.085,-0.597,4.333,-3.174,1.404
0.654,0.230,-0.727,3.479,6.348,3.723
0.655,0.217,-0.787,-0.244,9.155,-3.113
0.652,0.142,-0.714,-4.150,5.615,-10.437
0.646,0.124,-0.707,-6.592,6.592,-13.367
0.643,0.113,-0.799,-7.507,10.681,-15.320
0.631,0.060,-0.866,-8.301,10.498,-18.250
0.627,-0.010,-0.836,-8.057,5.676,-19.592
0.633,-0.005,-0.850,-6.653,3.418,-17.151
0.627,-0.001,-0.930,-5.371,3.479,-14.526
0.630,-0.005,-0.908,-6.409,-1.221,-13.977
0.633,-0.010,-0.776,-6.958,-7.812,-13.611
0.632,-0.047,-0.660,-5.249,-10.010,-13.794

0.834,-1.546,-0.610,-94.849,16.052,-72.998
0.833,-1.811,-0.529,-104.858,12.451,-67.810
0.826,-1.900,-0.449,-110.291,9.644,-52.307
0.821,-1.968,-0.296,-112.427,5.859,-35.645
0.826,-2.055,-0.131,-109.436,2.869,-20.569
0.829,-2.019,-0.091,-102.600,6.836,-1.831
0.801,-1.929,-0.101,-95.093,11.108,17.395
0.750,-1.924,0.041,-87.830,8.484,30.396
0.672,-1.837,0.180,-82.092,8.484,44.312
0.583,-1.629,0.056,-79.590,21.973,61.768
0.485,-1.370,-0.373,-80.444,41.992,76.904
0.360,-1.180,-0.549,-79.346,44.678,88.013
0.231,-1.027,-0.479,-69.153,34.363,99.609
0.065,-0.840,-0.486,-50.110,32.593,115.601
-0.118,-0.601,-0.519,-27.405,33.752,133.484
-0.283,-0.219,-0.503,-11.536,35.095,152.222
-0.445,0.218,-0.485,-5.005,41.870,166.992
-0.601,0.469,-0.529,0.061,53.772,170.410
-0.777,0.656,-0.762,11.536,69.153,171.692
-0.891,0.989,-0.991,22.705,79.102,176.575
-0.960,1.293,-1.006,27.100,80.933,177.551
-0.964,1.343,-0.802,30.579,81.177,166.260
-0.965,1.351,-0.824,37.292,96.924,155.884
-0.960,1.206,-1.155,49.377,123.840,149.231
-0.856,1.037,-1.671,62.195,145.691,149.231
-0.680,1.067,-2.156,74.402,152.954,162.292
-0.390,1.243,-2.407,80.017,140.198,175.110
-0.002,1.606,-2.418,72.510,119.385,180.847
0.417,1.911,-2.532,49.927,109.741,169.678
0.737,1.882,-2.781,19.592,106.873,139.282
0.917,1.528,-2.947,-2.380,90.088,102.844
0.967,1.441,-2.934,-7.812,56.091,83.557
0.900,1.760,-2.545,-2.258,8.057,75.317
0.729,1.961,-1.701,1.038,-43.518,49.011
0.509,1.822,-0.684,-9.399,-78.552,0.488
0.256,1.411,0.061,-31.982,-78.064,-54.626
-0.000,0.783,0.263,-57.983,-43.457,-104.736
-0.208,0.079,0.105,-75.989,-3.662,-136.169
-0.308,-0.466,0.008,-80.933,16.235,-142.639
-0.322,-0.743,-0.020,-71.716,23.010,-129.272
-0.294,-0.886,-0.249,-52.368,33.569,-107.239
-0.229,-1.010,-0.672,-32.715,46.448,-83.984
-0.128,-0.975,-1.056,-16.479,48.706,-56.152
0.011,-0.726,-1.314,-3.479,39.673,-24.963
0.159,-0.528,-1.418,5.981,25.146,-3.601
0.279,-0.337,-1.376,11.780,9.705,9.766
0.377,0.012,-1.356,12.512,1.465,21.545
0.436,0.336,-1.403,8.362,-0.122,24.231
0.459,0.526,-1.427,2.930,-2.686,14.954
0.436,0.636,-1.456,-1.648,-6.775,0.732
0.372,0.668,-1.508,-6.531,-11.719,-15.686
0.302,0.612,-1.522,-14.221,-18.250,-32.288
0.210,0.513,-1.489,-23.315,-25.391,-46.997
0.111,0.234,-1.399,-31.250,-31.433,-60.303
0.062,-0.074,-1.307,-35.339,-34.790,-65.674
0.020,-0.124,-1.326,-32.104,-33.875,-56.885
-0.012,-0.079,-1.383,-25.513,-34.363,-45.044
-0.030,-0.135,-1.322,-20.813,-39.734,-39.001
-0.035,-0.085,-1.173,-16.846,-44.983,-30.823
-0.025,0.035,-1.083,-10.803,-44.922,-21.912
-0.010,0.108,-1.047,-1.953,-42.114,-18.005
0.021,0.160,-1.011,9.949,-40.466,-16.174
0.093,0.322,-0.994,22.522,-40.100,-14.465
0.160,0.451,-0.936,29.175,-40.894,-20.996
0.195,0.344,-0.831,29.968,-41.809,-39.612
0.201,0.043,-0.845,26.428,-35.217,-60.425
0.190,-0.209,-0.981,21.729,-24.658,-71.106
0.165,-0.411,-1.109,20.508,-19.348,-72.266
0.139,-0.633,-1.064,23.071,-23.071,-68.481
0.152,-0.805,-0.889,28.015,-28.687,-56.946
0.205,-0.773,-0.796,35.461,-26.306,-36.438
0.303,-0.593,-0.845,44.434,-18.860,-14.099
0.406,-0.446,-0.869,54.077,-15.564,0.427
0.506,-0.247,-0.739,62.500,-19.348,9.949
0.605,0.014,-0.612,69.031,-21.301,14.038
0.672,0.110,-0.543,70.435,-17.761,4.883
0.692,0.084,-0.510,67.139,-11.169,-10.986
0.696,0.060,-0.579,59.631,-1.160,-24.902
0.677,0.018,-0.838,49.805,12.268,-35.950
0.641,-0.120,-1.129,40.894,19.470,-46.082
0.613,-0.245,-1.138,32.776,9.399,-51.636
0.594,-0.331,-0.884,28.442,-7.019,-51.025
0.577,-0.447,-0.671,28.442,-12.573,-48.218
0.587,-0.480,-0.645,31.738,-6.042,-40.344
0.613,-0.374,-0.724,35.217,2.747,-28.564
0.627,-0.335,-0.826,36.743,9.460,-21.973
0.631,-0.358,-0.845,35.095,11.169,-20.447
0.645,-0.401,-0.807,31.128,10.437,-18.738
0.645,-0.446,-0.770,28.015,10.071,-16.602
0.647,-0.522,-0.744,27.588,9.888,-13.977
0.671,-0.521,-0.734,28.809,9.766,-8.118
0.695,-0.438,-0.739,31.128,9.644,-0.549
0.705,-0.423,-0.816,32.227,9.705,2.991
0.705,-0.474,-0.851,31.555,6.653,3.479
0.740,-0.416,-0.771,30.212,-1.221,7.019
0.754,-0.356,-0.685,27.344,-5.981,8.484
0.748,-0.455,-0.526,18.066,-8.118,1.587
0.746,-0.530,-0.451,7.263,-4.639,-2.380
0.728,-0.575,-0.584,0.610,6.409,-1.099
0.702,-0.731,-0.647,-3.418,10.986,-0.671
0.691,-0.846,-0.536,-4.150,6.042,5.005
0.693,-0.843,-0.409,-1.465,5.127,18.066
0.706,-0.750,-0.404,3.845,11.963,32.593
0.729,-0.548,-0.562,11.414,22.827,46.082
0.749,-0.338,-0.656,17.578,25.635,53.345
0.758,-0.236,-0.668,18.494,22.156,50.781
0.759,-0.214,-0.675,14.709,20.447,43.579
0.754,-0.209,-0.717,11.597,21.362,38.147
0.745,-0.190,-0.730,9.277,21.484,34.180
0.740,-0.172,-0.743,8.667,20.691,30.884
0.718,-0.206,-0.792,10.498,21.484,26.672
0.706,-0.269,-0.787,14.160,19.653,22.949
0.697,-0.247,-0.772,18.982,17.090,23.193
0.687,-0.221,-0.807,23.437,17.029,23.193
0.671,-0.239,-0.892,25.269,17.883,20.325
0.669,-0.199,-0.937,23.621,16.296,18.982
0.670,-0.095,-0.937,18.555,13.428,18.250
0.670,-0.058,-0.946,10.376,13.306,12.451
0.663,-0.074,-0.960,0.366,14.893,3.967

0.939,-1.252,0.382,-99.670,-56.763,-2.258
0.948,-1.128,0.508,-79.834,-51.880,4.211
0.971,-1.074,0.635,-69.336,-44.556,4.761
0.983,-1.068,0.571,-67.017,-29.053,3.479
0.969,-1.138,0.286,-72.876,-10.376,2.136
0.964,-1.123,0.104,-81.177,-3.662,6.836
0.951,-1.022,0.202,-86.975,-11.108,15.564
0.913,-0.950,0.446,-92.651,-16.907,22.034
0.886,-0.841,0.571,-99.487,-11.169,26.428
0.849,-0.745,0.600,-106.689,1.221,28.687
0.811,-0.805,0.600,-109.131,12.695,26.062
0.739,-0.897,0.417,-103.577,25.635,26.123
0.634,-1.049,0.290,-89.172,31.921,30.640
0.530,-1.067,0.243,-69.580,30.640,43.091
0.432,-0.863,0.217,-51.453,32.104,60.669
0.333,-0.562,0.140,-40.894,39.001,70.923
0.250,-0.338,0.018,-38.208,49.316,68.298
0.192,-0.241,-0.056,-39.124,57.678,55.420
0.105,-0.151,-0.216,-38.574,68.542,41.199
-0.049,-0.180,-0.381,-35.461,79.102,26.123
-0.222,-0.270,-0.356,-23.499,82.642,13.367
-0.360,-0.271,-0.273,-2.625,89.600,9.338
-0.493,-0.135,-0.325,23.987,106.140,10.437
-0.627,-0.168,-0.413,56.702,124.817,5.310
-0.754,-0.353,-0.642,90.881,144.104,-1.526
-0.851,-0.554,-1.050,122.192,166.260,-1.343
-0.891,-0.705,-1.502,145.691,184.448,8.118
-0.852,-0.776,-1.771,158.936,188.171,26.245
-0.750,-0.625,-1.921,159.912,183.716,52.246
-0.600,-0.380,-2.068,146.545,181.641,75.989
-0.398,-0.175,-2.298,126.221,182.739,88.867
-0.199,0.045,-2.521,105.835,177.856,93.811
0.006,0.161,-2.557,87.280,158.936,91.614
0.253,0.273,-2.493,71.411,133.667,85.449
0.499,0.559,-2.511,60.181,113.403,79.529
0.670,0.696,-2.589,50.903,92.041,61.035
0.696,0.526,-2.624,37.903,64.819,27.954
0.601,0.275,-2.468,24.902,31.189,-1.221
0.467,0.050,-2.117,11.597,-3.357,-19.714
0.316,-0.112,-1.761,-0.610,-29.053,-30.640
0.195,-0.264,-1.397,-9.460,-47.424,-36.316
0.091,-0.393,-1.059,-14.404,-60.059,-37.537
0.022,-0.497,-0.734,-16.907,-66.528,-34.973
0.002,-0.584,-0.479,-15.747,-65.552,-29.175
0.025,-0.623,-0.469,-10.986,-52.856,-20.020
0.065,-0.583,-0.696,-1.831,-36.438,-8.728
0.139,-0.568,-0.887,7.019,-29.785,-0.244
0.222,-0.486,-0.956,11.841,-31.677,6.958
0.298,-0.401,-1.067,18.066,-31.677,12.146
0.361,-0.482,-1.310,25.452,-29.236,11.230
0.362,-0.642,-1.558,33.325,-32.349,11.536
0.365,-0.635,-1.703,42.725,-43.396,20.020
0.352,-0.364,-1.833,47.668,-52.795,32.593
0.333,-0.131,-1.883,42.969,-60.425,34.119
0.297,-0.010,-1.785,34.424,-69.397,24.841
0.262,0.089,-1.647,29.053,-76.538,13.672
0.227,0.167,-1.601,29.053,-80.200,1.038
0.143,0.147,-1.628,30.457,-84.900,-14.709
0.044,0.014,-1.502,27.527,-95.825,-32.776
-0.026,-0.133,-1.233,23.071,-105.713,-46.326
-0.073,-0.219,-1.085,18.188,-103.027,-53.284
-0.100,-0.304,-1.168,13.428,-90.881,-57.068
-0.122,-0.342,-1.232,13.062,-85.205,-57.190
-0.112,-0.346,-1.155,18.250,-90.576,-54.565
-0.094,-0.344,-1.041,27.771,-96.436,-52.551
-0.069,-0.352,-0.926,38.574,-99.060,-51.208
-0.025,-0.363,-0.865,49.988,-97.656,-50.049
0.061,-0.360,-0.894,60.242,-93.323,-48.157
0.148,-0.313,-0.869,66.589,-92.102,-47.180
0.231,-0.142,-0.748,69.519,-95.032,-46.692
0.281,-0.021,-0.709,68.542,-92.590,-52.673
0.304,-0.022,-0.665,57.129,-89.111,-68.176
0.300,-0.101,-0.456,41.504,-92.224,-84.290
0.304,-0.201,-0.205,33.691,-93.994,-95.032
0.300,-0.293,-0.094,34.851,-86.609,-99.426
0.308,-0.373,-0.056,41.748,-76.904,-99.792
0.345,-0.406,-0.103,51.086,-68.787,-96.863
0.387,-0.429,-0.146,60.059,-64.087,-94.238
0.427,-0.515,-0.119,65.796,-63.965,-95.032
0.472,-0.684,-0.075,66.345,-62.073,-98.022
0.498,-0.875,-0.076,61.951,-56.763,-98.999
0.518,-1.048,-0.077,51.636,-49.561,-95.947
0.534,-1.190,-0.104,41.199,-41.687,-87.769
0.546,-1.360,-0.083,36.438,-38.391,-76.111
0.552,-1.532,0.036,36.926,-41.443,-58.777
0.562,-1.604,0.181,43.091,-44.067,-32.349
0.617,-1.520,0.310,54.810,-41.260,-0.183
0.690,-1.193,0.347,70.679,-32.898,30.579
0.772,-0.879,0.435,72.754,-22.644,46.265
0.817,-0.720,0.473,59.692,-8.057,42.908
0.823,-0.797,0.370,41.321,13.672,28.015
0.809,-1.048,0.154,23.132,34.790,12.207
0.806,-1.242,-0.001,9.705,45.898,7.996
0.790,-1.337,-0.089,4.028,48.462,16.541
0.774,-1.428,-0.191,4.639,50.049,30.640
0.777,-1.427,-0.296,4.395,50.415,50.537
0.802,-1.186,-0.364,4.395,47.729,76.355
0.819,-0.905,-0.351,3.723,41.687,96.924
0.839,-0.787,-0.285,-3.174,38.330,104.309
0.853,-0.681,-0.198,-7.202,37.964,109.009
0.900,-0.438,-0.206,-10.864,42.664,116.089
0.916,-0.179,-0.282,-13.916,51.758,114.685
0.926,-0.123,-0.352,-20.691,58.655,97.473
0.917,-0.217,-0.399,-26.917,62.500,74.768
0.919,-0.314,-0.573,-38.757,66.589,56.580
0.915,-0.421,-0.702,-63.538,68.237,43.884
0.842,-0.735,-0.958,-54.688,63.843,29.175
0.848,-0.810,-0.865,-52.429,42.969,32.837
0.844,-0.751,-0.720,-27.527,21.484,45.288
0.840,-0.711,-0.580,-22.888,11.902,53.284
0.834,-0.706,-0.538,-23.743,10.986,57.007
0.829,-0.632,-0.505,-25.269,12.146,63.232
0.839,-0.513,-0.474,-30.396,13.428,68.726
0.877,-0.333,-0.504,-48.462,18.127,72.510
0.900,-0.125,-0.645,-63.599,24.658,69.824
0.918,-0.039,-0.824,-79.102,23.437,53.955
0.891,-0.113,-0.866,-105.774,12.207,30.884
0.832,-0.287,-0.748,-125.000,-3.113,7.935
0.828,-0.424,-0.599,-141.296,-13.000,-6.470

1.065,-0.327,1.014,-323.364,-67.810,24.658
1.023,-0.202,0.849,-333.740,-56.213,30.518
1.000,-0.069,0.828,-367.371,-55.359,31.738
0.983,0.106,0.942,-405.090,-66.223,32.898
0.981,0.166,0.984,-433.350,-71.045,30.029
0.984,0.173,1.001,-451.599,-71.411,25.757
0.949,0.215,1.014,-458.191,-75.073,25.696
0.923,0.433,1.001,-477.600,-77.393,32.410
0.892,0.632,0.987,-491.150,-76.355,35.095
0.864,0.693,0.932,-483.704,-76.233,28.992
0.818,0.702,0.824,-476.501,-74.646,24.780
0.760,0.842,0.704,-465.820,-72.205,28.137
0.725,1.016,0.649,-448.059,-73.181,31.067
0.713,1.156,0.731,-423.950,-75.256,27.161
0.661,1.151,0.833,-393.921,-70.496,13.062
0.593,1.115,0.760,-366.760,-55.908,-1.831
0.484,1.099,0.429,-339.905,-38.574,-15.015
0.427,0.894,0.053,-327.393,-33.264,-31.250
0.327,0.619,-0.092,-326.904,-49.744,-43.091
0.283,0.521,-0.109,-339.355,-76.843,-42.358
0.236,0.293,-0.011,-341.309,-101.929,-42.419
0.141,0.088,0.141,-335.083,-119.873,-38.330
0.014,0.175,0.220,-325.134,-125.366,-24.536
-0.144,0.286,0.249,-303.467,-122.620,-16.724
-0.295,0.286,0.290,-267.334,-117.065,-24.231
-0.458,0.198,0.331,-218.872,-111.572,-41.199
-0.585,0.121,0.310,-165.649,-106.140,-59.509
-0.641,-0.122,0.556,-143.555,-109.558,-80.566
-0.681,-0.254,0.912,-111.572,-124.573,-96.741
-0.761,-0.364,1.000,-63.599,-129.272,-109.314
-0.803,-0.337,0.833,-32.043,-130.737,-118.103
-0.774,-0.442,0.943,-14.893,-152.222,-129.272
-0.676,-0.663,1.436,-9.521,-187.622,-139.709
-0.560,-0.796,1.932,-1.404,-209.229,-139.526
-0.464,-0.714,2.243,9.888,-208.862,-131.470
-0.298,-0.462,2.378,17.212,-196.716,-122.498
-0.092,-0.402,2.389,20.020,-180.420,-124.268
0.145,-0.437,2.370,21.973,-164.490,-130.859
0.401,-0.419,2.486,28.442,-150.146,-131.958
0.664,-0.482,2.710,44.250,-133.301,-134.033
0.888,-0.700,2.913,58.716,-107.117,-136.169
1.013,-1.018,2.877,64.148,-68.726,-130.798
1.030,-1.400,2.472,59.631,-23.621,-112.061
0.950,-1.609,1.946,46.387,12.024,-75.500
0.792,-1.546,1.508,28.931,30.518,-24.475
0.552,-1.275,1.124,7.751,36.438,28.198
0.314,-0.927,0.649,-16.479,37.903,72.571
0.167,-0.641,0.341,-39.978,26.489,101.990
0.072,-0.344,0.498,-57.800,-2.014,120.422
0.053,0.037,0.890,-61.035,-23.987,130.127
0.026,0.370,1.134,-49.744,-23.315,126.831
-0.006,0.620,1.305,-34.790,-11.963,113.892
0.004,0.816,1.594,-16.663,-3.967,94.604
0.007,0.877,1.763,1.160,11.658,68.298
0.039,0.814,1.724,13.550,34.485,39.856
0.107,0.508,1.618,20.630,51.270,11.963
0.190,0.136,1.529,20.264,59.875,-5.188
0.255,-0.071,1.356,16.174,65.308,-6.287
0.317,-0.267,1.131,9.094,68.665,-1.526
0.352,-0.422,1.044,-0.793,63.721,8.972
0.388,-0.377,1.019,-9.094,55.115,27.039
0.386,-0.420,1.092,-12.939,47.852,42.053
0.346,-0.409,1.176,-13.489,44.250,56.213
0.265,-0.199,1.259,-7.263,46.875,73.853
0.168,0.137,1.470,4.822,49.805,86.975
0.057,0.386,1.526,20.813,61.951,87.524
0.009,0.577,1.407,36.011,78.918,78.430
0.038,0.698,1.239,49.255,88.928,62.561
0.152,0.497,1.064,55.725,92.712,41.504
0.244,0.050,0.879,52.734,94.543,26.306
0.322,-0.075,0.656,44.617,94.482,34.363
0.358,-0.046,0.540,40.771,86.731,49.377
0.375,-0.106,0.540,38.574,72.998,57.678
0.365,-0.160,0.528,32.166,61.584,66.833
0.349,-0.097,0.540,27.466,51.819,79.163
0.331,-0.015,0.699,24.353,40.222,89.111
0.311,0.100,0.952,21.606,32.166,97.717
0.224,0.341,1.033,17.822,36.499,107.788
0.168,0.737,0.919,9.888,47.119,113.586
0.144,1.056,0.821,-0.549,49.500,107.849
0.209,0.975,0.741,-10.437,47.974,86.548
0.266,0.712,0.707,-19.348,45.166,65.369
0.305,0.645,0.612,-27.405,44.556,60.791
0.312,0.660,0.461,-32.593,46.387,60.913
0.326,0.619,0.356,-32.288,44.312,57.068
0.348,0.576,0.384,-30.029,38.574,53.284
0.364,0.569,0.414,-27.466,36.560,51.147
0.369,0.527,0.321,-18.250,43.152,46.326
0.381,0.485,0.216,-4.333,48.645,40.771
0.415,0.416,0.162,7.019,48.645,36.926
0.414,0.373,0.074,9.460,46.265,37.659
0.342,0.509,-0.147,1.831,42.053,46.082
0.314,0.760,-0.314,-14.526,28.076,55.664
0.329,0.861,-0.063,-34.851,-2.014,55.542
0.372,0.896,0.380,-52.307,-26.978,49.683
0.411,0.968,0.535,-59.326,-25.024,42.725
0.431,0.967,0.424,-51.575,-7.446,31.067
0.439,0.881,0.278,-34.302,6.287,16.174
0.443,0.798,0.148,-12.817,14.526,4.150
0.479,0.699,0.078,3.235,17.883,-4.089
0.488,0.577,0.109,14.648,15.991,-7.324
0.506,0.593,0.122,21.545,14.343,-3.357
0.530,0.623,0.129,23.376,12.390,2.625
0.506,0.656,0.196,21.240,6.592,7.874
0.471,0.889,0.191,19.836,2.502,16.296
0.405,1.170,0.087,17.944,1.404,19.287
0.355,1.366,-0.016,13.367,-3.906,9.583
0.384,1.361,-0.021,11.536,-16.418,-11.475
0.456,1.090,0.174,12.634,-33.020,-37.842
0.533,0.785,0.409,13.184,-42.297,-54.077
0.579,0.718,0.467,15.381,-37.415,-56.030
0.594,0.750,0.447,21.545,-27.588,-55.786
0.594,0.728,0.485,32.349,-21.362,-61.096
0.582,0.690,0.524,46.204,-14.771,-67.566
0.587,0.641,0.534,59.998,-6.775,-73.059
0.588,0.558,0.549,66.162,-1.892,-76.050
0.575,0.550,0.528,61.646,0.244,-72.388
0.571,0.599,0.493,48.828,-1.587,-65.918
0.569,0.657,0.546,32.532,-10.132,-61.707

0.940,1.216,0.690,-49.805,-9.827,26.123
0.922,1.297,0.589,-53.589,3.662,25.330
0.901,1.289,0.474,-57.678,13.062,20.874
0.894,1.253,0.363,-56.824,17.761,17.822
0.888,1.233,0.240,-59.570,21.729,17.578
0.877,1.224,0.122,-55.664,23.254,17.822
0.865,1.239,0.009,-55.115,23.193,18.188
0.860,1.248,-0.078,-56.580,21.118,18.860
0.868,1.266,-0.173,-59.570,17.578,18.860
0.927,1.239,-0.256,-61.707,13.489,16.602
0.955,1.124,-0.287,-61.157,8.911,12.695
0.972,0.961,-0.395,-57.739,7.874,10.315
0.964,0.876,-0.597,-50.476,10.132,12.695
0.912,0.809,-0.775,-42.114,7.751,18.799
0.834,0.807,-0.837,-38.513,-1.160,27.710
0.719,1.072,-0.743,-42.664,-15.076,42.664
0.652,1.474,-0.651,-42.969,-25.208,48.706
0.572,1.609,-0.386,-26.245,-32.410,29.114
0.471,1.616,0.016,8.667,-35.522,-3.296
0.346,1.526,0.129,42.969,-22.461,-36.438
0.211,1.093,-0.134,51.758,-5.188,-69.275
0.103,0.479,-0.387,22.949,-10.254,-84.900
0.036,0.051,-0.363,-32.532,-42.053,-70.923
-0.017,-0.116,-0.065,-87.463,-82.458,-40.771
-0.088,-0.121,0.400,-122.986,-112.854,-13.062
-0.161,-0.041,0.766,-123.596,-121.155,1.526
-0.271,-0.042,1.014,-94.238,-110.352,0.122
-0.429,-0.209,1.203,-53.284,-92.834,-9.644
-0.620,-0.292,1.212,-17.761,-71.350,-13.794
-0.760,-0.164,1.189,5.493,-57.129,-13.428
-0.833,-0.124,1.467,14.587,-62.622,-22.034
-0.863,-0.186,1.751,19.958,-70.984,-35.461
-0.887,-0.122,1.641,31.250,-63.416,-43.335
-0.836,0.152,1.302,44.861,-59.204,-52.063
-0.770,0.281,1.415,48.462,-86.853,-70.251
-0.602,0.425,1.731,33.020,-125.183,-89.966
-0.329,0.552,2.046,11.597,-153.931,-109.985
-0.000,0.384,2.505,-8.179,-177.673,-138.245
0.341,0.140,3.045,-21.667,-185.913,-160.583
0.641,-0.074,3.361,-22.278,-162.537,-168.640
0.806,-0.310,3.365,-13.062,-111.206,-167.603
0.838,-0.647,3.123,10.254,-51.331,-157.471
0.764,-0.944,2.573,24.658,8.240,-134.094
0.618,-1.122,1.900,25.452,55.481,-101.135
0.459,-1.249,1.338,22.339,82.336,-63.599
0.274,-1.306,0.882,14.465,92.834,-22.522
0.108,-1.107,0.520,0.549,91.248,22.949
-0.018,-0.666,0.423,-15.381,74.036,65.857
-0.066,-0.244,0.572,-29.785,50.842,91.553
-0.084,-0.035,0.780,-35.339,37.292,98.328
-0.111,0.110,0.929,-33.752,36.316,98.633
-0.140,0.365,0.942,-27.466,43.091,99.365
-0.168,0.529,1.003,-18.921,47.119,92.468
-0.182,0.543,1.092,-12.634,48.950,78.430
-0.180,0.523,1.124,-8.728,53.345,64.575
-0.154,0.497,1.095,-2.869,58.533,51.941
-0.110,0.355,0.992,5.981,64.087,38.025
-0.017,0.067,0.916,16.846,65.613,26.062
0.031,-0.163,0.919,22.034,62.866,26.855
0.074,-0.216,0.919,21.912,61.951,40.405
0.094,-0.136,0.945,18.494,61.462,59.570
0.095,-0.073,0.956,16.113,62.073,74.890
0.083,-0.020,0.975,15.869,64.453,86.487
0.038,0.088,1.029,15.625,67.871,98.938
-0.005,0.303,0.985,19.104,75.073,110.596
-0.030,0.488,0.869,30.396,83.679,115.112
-0.054,0.577,0.794,46.082,87.341,111.145
-0.051,0.637,0.708,64.819,88.989,103.943
-0.027,0.705,0.563,83.435,89.111,95.215
0.018,0.776,0.444,100.952,85.144,84.229
0.076,0.706,0.396,117.065,76.172,68.787
0.128,0.541,0.296,129.456,68.787,54.016
0.179,0.345,0.140,135.498,62.439,47.485
0.204,0.234,0.095,132.690,46.875,53.223
0.214,0.316,0.162,119.446,25.146,68.420
0.210,0.498,0.333,101.501,3.662,83.313
0.221,0.640,0.531,69.763,-9.521,90.271
0.296,0.821,0.627,67.383,-13.672,94.360
0.336,0.912,0.703,64.636,-12.207,91.431
0.335,1.102,0.615,67.993,-5.005,90.088
0.335,1.414,0.482,67.688,-1.282,89.111
0.369,1.612,0.355,66.467,-3.662,76.355
0.396,1.658,0.373,61.340,-14.343,52.307
0.475,1.643,0.463,59.448,-25.452,26.306
0.533,1.545,0.562,63.416,-30.334,-1.953
0.588,1.438,0.645,73.364,-30.334,-30.823
0.636,1.275,0.694,89.111,-27.222,-59.265
0.732,0.995,0.717,101.013,-25.024,-84.412
0.807,0.566,0.762,97.229,-27.100,-97.778
0.872,0.304,0.830,75.684,-31.555,-88.928
0.908,0.351,0.939,54.504,-36.804,-61.951
0.900,0.612,1.084,32.288,-39.856,-33.447
0.872,0.875,1.167,14.099,-35.522,-18.127
0.860,0.987,1.149,6.775,-23.132,-19.836
0.818,0.996,1.035,10.071,-7.996,-30.701
0.776,1.019,0.885,20.935,5.066,-41.504
0.747,0.993,0.701,32.410,15.198,-54.871
0.749,0.824,0.576,39.978,19.287,-71.411
0.737,0.582,0.572,37.231,17.151,-81.970
0.744,0.496,0.533,28.076,15.198,-78.247
0.731,0.509,0.493,17.029,12.695,-67.200
0.707,0.552,0.438,5.859,8.606,-55.847
0.695,0.578,0.357,-7.385,3.723,-45.898
0.703,0.642,0.360,-21.667,-4.761,-36.926
0.699,0.694,0.453,-32.104,-13.855,-31.494
0.698,0.778,0.591,-38.696,-19.165,-28.442
0.684,0.805,0.615,-37.292,-14.587,-30.945
0.667,0.774,0.540,-29.114,-5.188,-37.476
0.664,0.724,0.535,-17.944,-0.366,-44.006
0.656,0.667,0.605,-9.399,0.793,-49.500
0.652,0.655,0.623,-2.197,5.737,-53.101
0.643,0.611,0.580,4.333,12.634,-57.129
0.646,0.526,0.559,5.249,15.198,-61.035
0.666,0.401,0.545,2.930,14.526,-62.256
0.676,0.275,0.542,0.793,13.245,-60.120
0.688,0.134,0.546,-2.686,11.169,-54.016
0.688,0.068,0.559,-7.019,9.155,-41.626
0.677,0.073,0.554,-8.179,7.385,-25.879
0.667,0.104,0.546,-6.653,5.798,-11.230

0.548,1.278,1.040,129.272,-44.128,-65.369
0.597,1.078,0.953,139.221,-38.208,-97.290
0.689,0.752,1.034,146.362,-42.358,-122.009
0.861,0.442,1.254,144.531,-49.805,-126.404
0.922,0.327,1.506,119.873,-51.270,-109.436
0.889,0.960,1.467,82.275,-38.452,-72.510
0.892,1.483,1.024,60.364,-18.250,-62.134
0.931,1.154,0.716,44.678,-19.531,-95.215
0.978,0.759,0.849,23.437,-46.143,-119.568
1.030,0.763,1.014,5.371,-67.627,-115.662
1.084,0.681,0.962,-4.944,-72.083,-112.122
1.113,0.379,0.908,-7.690,-75.562,-112.793
1.179,0.182,1.053,-7.385,-85.876,-104.370
1.131,0.443,1.187,-5.798,-90.637,-85.693
1.082,0.844,1.051,1.404,-81.848,-78.247
1.107,0.794,1.103,11.475,-82.336,-102.356
1.147,0.609,1.614,2.441,-94.971,-132.507
1.088,0.728,1.905,-20.508,-87.891,-146.790
0.941,0.991,1.514,-42.603,-51.819,-158.875
0.716,0.983,0.803,-54.749,-21.362,-187.500
0.522,0.710,0.284,-58.655,-21.667,-223.633
0.380,0.381,-0.120,-59.143,-39.124,-248.535
0.231,0.276,-0.521,-59.387,-59.875,-253.296
-0.016,-0.028,-0.835,-57.434,-83.740,-250.305
-0.203,-0.253,-1.187,-48.035,-110.596,-237.000
-0.562,-0.504,-1.264,-30.823,-147.156,-213.318
-0.852,-0.662,-0.801,-12.146,-198.364,-189.880
-0.998,-0.937,0.213,19.409,-244.202,-177.551
-1.129,-1.018,1.124,55.054,-253.967,-169.922
-1.317,-0.686,1.135,92.957,-205.200,-153.931
-1.557,-0.360,0.338,112.305,-131.165,-145.142
-1.829,-0.517,-0.201,107.544,-93.750,-150.330
-2.075,-0.620,-0.253,91.187,-96.313,-146.667
-2.220,-0.470,-0.275,75.562,-100.159,-126.465
-2.368,-0.538,-0.414,61.462,-98.877,-115.112
-2.435,-0.431,-0.480,49.622,-108.215,-101.990
-2.393,-0.177,-0.168,42.114,-134.094,-92.224
-2.246,-0.041,0.343,43.518,-158.569,-97.839
-2.112,-0.407,0.708,50.415,-161.926,-119.690
-1.921,-0.782,0.898,55.847,-148.499,-131.592
-1.742,-0.985,1.031,53.223,-131.409,-126.404
-1.496,-1.240,1.224,46.509,-116.638,-117.554
-1.315,-1.521,1.406,37.903,-100.037,-104.370
-1.161,-1.456,1.536,31.555,-77.942,-74.951
-1.059,-1.182,1.597,29.297,-51.819,-42.175
-0.979,-0.808,1.479,31.677,-21.973,-20.325
-0.934,-0.652,1.179,32.654,7.019,-11.230
-0.831,-0.619,0.846,26.184,27.771,-5.859
-0.999,-0.442,0.817,12.329,33.997,5.981
-0.876,-0.358,0.640,8.057,39.795,17.944
-1.024,-0.119,0.605,8.057,39.551,31.250
-1.088,0.036,0.390,10.986,43.762,40.100
-1.169,-0.262,0.472,11.780,34.485,32.776
-1.232,-0.340,0.859,7.507,17.090,36.621
-1.283,-0.373,1.179,3.906,15.381,44.312
-1.373,-0.512,1.291,2.197,29.541,45.105
-1.441,-0.592,1.275,6.409,48.401,49.377
-1.532,-0.612,1.187,6.165,66.162,58.105
-1.625,-0.570,0.989,4.578,83.740,69.336
-1.675,-0.473,0.822,3.662,94.727,79.041
-1.627,-0.312,0.753,2.075,97.229,84.351
-1.561,-0.453,0.713,-3.601,98.328,80.505
-1.541,-0.640,0.588,-16.113,103.271,78.857
-1.494,-0.495,0.446,-27.039,106.689,92.163
-1.393,-0.490,0.367,-33.875,103.455,99.731
-1.294,-0.736,0.437,-38.513,95.825,99.487
-1.202,-0.780,0.609,-41.565,88.989,113.464
-1.146,-0.470,0.643,-37.842,92.285,136.475
-1.049,0.214,0.438,-20.264,102.661,153.931
-0.860,0.485,0.226,0.488,104.126,146.423
-0.564,0.255,0.210,3.052,90.820,117.676
-0.402,0.179,0.597,-5.798,70.496,104.065
-0.137,-0.452,0.680,-0.916,67.627,83.618
-0.013,-0.406,1.052,-16.479,67.383,91.553
0.040,0.040,1.154,-24.414,80.505,112.793
0.128,-0.154,0.906,-19.836,108.032,100.342
0.166,-0.547,0.684,-11.230,123.535,84.900
0.147,-0.542,0.476,-5.005,129.822,97.168
0.137,-0.172,0.147,5.432,135.376,114.624
0.162,0.147,-0.062,25.635,126.953,119.690
0.209,0.181,-0.037,42.969,104.553,112.122
0.363,0.078,0.293,45.166,76.294,102.722
0.506,0.142,0.832,40.710,51.331,101.868
0.514,0.409,1.217,30.273,46.875,105.896
0.542,0.688,1.137,21.545,65.125,101.624
0.582,0.644,0.848,24.597,83.130,78.796
0.672,0.382,0.783,33.569,82.764,53.711
0.730,0.138,0.949,42.603,75.317,39.978
0.761,0.101,0.858,56.091,82.886,38.696
0.731,0.121,0.498,68.665,98.450,39.001
0.737,0.131,0.197,76.233,100.708,34.668
0.716,0.179,0.045,81.482,87.769,26.550
0.726,0.238,-0.141,84.717,72.144,16.174
0.744,0.027,-0.270,82.703,52.185,-1.160
0.745,-0.200,-0.027,70.313,18.555,-11.414
0.784,-0.166,0.495,51.331,-14.099,-8.667
0.796,-0.171,0.877,35.583,-25.452,-8.118
0.775,-0.272,1.042,26.245,-18.250,-13.977
0.798,-0.382,1.121,27.710,-8.057,-20.081
0.803,-0.562,1.215,35.156,0.061,-24.658
0.794,-0.726,1.205,44.373,13.489,-23.193
0.789,-0.727,1.075,53.467,30.823,-12.756
0.716,-0.584,0.903,58.899,43.945,1.160
0.645,-0.278,0.653,61.157,50.537,11.414
0.590,-0.121,0.306,65.308,49.316,5.554
0.564,-0.249,0.143,63.843,31.250,-13.123
0.561,-0.465,0.312,54.260,-0.305,-26.855
0.560,-0.662,0.675,40.161,-28.809,-31.494
0.561,-0.869,1.005,27.771,-42.725,-30.518
0.559,-1.031,1.303,18.555,-45.776,-24.353
0.547,-0.993,1.560,15.015,-40.894,-10.132
0.525,-0.816,1.605,15.137,-23.254,5.920
0.481,-0.649,1.370,17.273,2.502,14.954
0.440,-0.453,1.117,18.433,18.188,18.250
0.419,-0.368,1.024,15.869,17.944,14.893
0.408,-0.466,0.987,8.850,13.550,6.653
0.403,-0.520,0.929,1.282,10.193,3.845
0.396,-0.469,0.900,-4.517,5.127,7.690
0.382,-0.453,0.886,-7.507,-0.366,9.705

0.387,-1.540,0.376,242.310,-107.849,-91.675
0.369,-1.151,0.111,244.568,-89.478,-88.745
0.412,-0.852,-0.167,237.976,-78.674,-99.060
0.405,-0.992,-0.461,202.454,-74.585,-126.099
0.404,-1.322,-0.436,174.255,-93.445,-159.180
0.332,-1.413,-0.077,147.156,-120.911,-171.631
0.363,-1.306,-0.051,147.095,-127.502,-172.241
0.334,-1.050,-0.491,146.240,-114.319,-166.748
0.264,-1.029,-0.782,129.883,-123.413,-175.537
0.208,-1.200,-0.694,95.947,-154.968,-189.209
0.201,-1.812,-0.449,57.068,-181.824,-208.984
0.195,-2.359,-0.096,44.617,-194.641,-214.355
0.232,-2.602,0.250,49.927,-195.618,-192.139
0.192,-2.231,0.552,71.533,-182.129,-147.339
0.152,-1.586,0.609,96.191,-157.227,-105.835
0.087,-1.167,0.558,97.168,-130.432,-90.515
0.006,-1.156,0.679,87.585,-113.403,-96.924
-0.027,-1.220,0.883,77.515,-98.633,-98.938
-0.115,-1.228,0.943,59.265,-71.838,-86.060
-0.248,-1.134,0.922,40.771,-40.344,-66.345
-0.353,-0.876,0.841,35.156,-5.676,-47.302
-0.440,-0.685,0.498,41.809,37.842,-37.537
-0.579,-0.695,0.103,46.387,78.369,-38.757
-0.733,-0.712,-0.184,60.242,104.004,-33.264
-0.922,-0.699,-0.464,78.308,122.070,-14.404
-1.118,-0.582,-0.600,92.346,129.089,17.090
-1.327,-0.273,-0.577,99.670,129.028,57.129
-1.610,0.175,-0.510,87.585,136.230,97.168
-1.847,0.669,-0.629,44.128,156.738,123.352
-2.118,1.109,-1.151,-5.737,195.679,130.676
-2.191,1.317,-1.660,-52.429,225.952,119.507
-2.202,1.218,-1.944,-104.858,236.145,90.454
-2.055,1.655,-1.913,-143.860,245.117,57.861
-1.658,1.746,-2.581,-154.785,289.246,2.197
-1.078,0.860,-3.533,-169.006,324.890,-83.130
-0.564,-0.176,-3.842,-196.960,277.893,-136.047
-0.205,-0.592,-3.368,-204.895,184.326,-130.432
-0.035,-0.761,-2.893,-190.918,108.337,-100.342
-0.078,-1.155,-2.883,-157.104,63.110,-75.867
-0.251,-1.502,-2.594,-103.210,7.996,-43.274
-0.549,-1.435,-1.819,-49.805,-63.477,9.399
-0.796,-0.835,-0.791,-13.367,-122.375,70.435
-0.909,-0.198,0.048,8.728,-143.433,104.309
-0.907,0.088,0.528,20.447,-125.916,95.886
-0.812,0.063,0.633,24.170,-86.853,66.711
-0.701,-0.067,0.379,25.513,-42.480,40.894
-0.610,-0.038,-0.035,23.071,-10.681,30.273
-0.598,0.023,-0.419,18.799,2.197,25.635
-0.580,0.017,-0.638,15.991,-0.549,17.395
-0.608,-0.101,-0.797,10.986,-9.277,7.263
-0.620,-0.249,-0.921,5.005,-19.348,-2.319
-0.601,-0.444,-0.957,-0.977,-32.593,-10.254
-0.570,-0.674,-0.880,-10.010,-47.546,-15.747
-0.556,-0.822,-0.726,-22.644,-59.021,-14.648
-0.562,-0.859,-0.554,-34.180,-62.622,-10.193
-0.568,-0.859,-0.501,-43.701,-57.007,-6.409
-0.589,-0.867,-0.666,-53.467,-43.518,-3.174
-0.614,-0.927,-0.788,-63.477,-37.109,1.404
-0.672,-0.985,-0.733,-73.364,-40.222,9.338
-0.724,-0.932,-0.746,-77.271,-37.781,23.132
-0.749,-0.786,-0.900,-71.716,-27.893,37.415
-0.740,-0.742,-1.066,-59.692,-22.400,46.326
-0.693,-0.750,-1.153,-45.959,-25.391,54.749
-0.678,-0.766,-1.175,-31.860,-34.363,67.749
-0.656,-0.791,-1.175,-20.020,-45.898,83.801
-0.652,-0.790,-1.089,-13.367,-60.059,102.478
-0.670,-0.825,-0.858,-9.033,-76.416,119.812
-0.687,-0.879,-0.630,-6.653,-85.876,135.498
-0.687,-0.939,-0.459,-6.531,-85.266,151.611
-0.667,-1.036,-0.294,-7.751,-80.078,164.612
-0.607,-1.139,-0.175,-8.545,-68.481,176.941
-0.532,-1.103,-0.138,-3.967,-49.011,192.932
-0.472,-0.819,-0.085,8.972,-30.090,212.341
-0.401,-0.463,-0.159,23.437,-8.972,218.872
-0.260,-0.243,-0.350,36.987,10.620,207.336
-0.260,-0.228,-0.555,41.016,19.775,186.218
-0.140,-0.218,-0.654,32.837,15.076,169.312
-0.103,-0.444,-0.783,14.160,7.385,150.513
-0.103,-0.755,-0.793,-1.221,-5.371,136.597
-0.094,-1.004,-0.660,-2.991,-21.973,135.803
-0.039,-1.096,-0.574,4.700,-29.480,144.409
0.063,-1.113,-0.504,20.264,-30.701,153.320
0.172,-1.128,-0.314,35.645,-35.767,156.311
0.354,-0.974,0.058,52.917,-41.931,159.180
0.235,-0.739,0.323,76.660,-31.250,159.302
0.296,-0.376,0.341,88.806,-0.549,153.992
0.287,-0.034,0.071,97.412,34.302,140.137
0.265,0.111,-0.176,95.703,54.871,112.488
0.285,0.100,-0.358,77.393,58.655,82.336
0.307,-0.065,-0.659,53.589,62.134,52.795
0.371,-0.367,-0.946,32.043,56.519,26.489
0.457,-0.737,-1.025,14.160,33.997,8.057
0.559,-1.159,-0.798,-0.244,2.625,-1.221
0.625,-1.623,-0.397,-5.737,-22.888,-3.845
0.646,-1.976,-0.006,3.418,-31.616,8.423
0.599,-2.011,0.231,27.771,-18.982,41.443
0.517,-1.579,0.271,60.059,8.911,86.304
0.406,-0.876,0.195,90.820,38.269,117.920
0.402,-0.221,0.128,111.084,61.951,118.591
0.491,-0.145,-0.101,114.807,85.327,82.031
0.552,-0.624,-0.478,93.750,102.661,31.433
0.561,-1.059,-0.750,63.110,99.060,8.362
0.587,-1.179,-0.767,35.461,76.782,17.151
0.615,-1.123,-0.621,17.822,51.636,35.095
0.605,-1.060,-0.507,9.583,39.185,46.936
0.597,-1.036,-0.539,11.780,40.039,51.941
0.599,-1.073,-0.583,23.132,42.358,52.734
0.565,-1.081,-0.582,37.231,40.894,55.847
0.529,-0.894,-0.500,49.805,37.048,66.101
0.482,-0.633,-0.390,57.556,35.156,73.730
0.439,-0.427,-0.406,58.716,40.527,71.289
0.423,-0.365,-0.610,57.434,50.781,58.472
0.427,-0.515,-0.784,55.664,53.040,38.391
0.445,-0.797,-0.771,51.514,42.297,20.203
0.465,-1.051,-0.652,49.438,30.396,12.695
0.486,-1.222,-0.600,50.537,27.649,15.869
0.459,-1.258,-0.583,55.054,29.053,26.489
0.441,-1.080,-0.564,59.326,29.602,41.626
0.417,-0.856,-0.615,60.547,32.654,51.758

