aX,aY,aZ 
-9.66,-0.04,-1.63
-9.52,-0.22,-1.83
-9.66,-0.18,-1.69
-9.55,-0.30,-1.78
-9.64,-0.23,-1.89
-9.65,0.00,-1.57
-9.66,0.11,-1.70
-9.62,-0.11,-1.63
-9.66,-0.11,-1.68
-9.54,-0.16,-1.76
-9.58,-0.01,-1.78
-9.59,-0.23,-1.77
-9.62,-0.03,-1.59
-9.51,-0.14,-1.59
-9.68,-0.01,-1.57
-9.58,-0.01,-1.70
-9.66,-0.17,-1.72
-9.63,-0.10,-1.71
-9.61,-0.11,-1.72
-9.63,-0.13,-1.68
-9.49,-0.04,-1.70
-9.55,0.58,-1.42
-9.55,0.53,-1.40
-9.57,0.49,-1.47
-9.73,0.70,-1.34
-9.65,0.25,-1.48
-9.68,0.54,-1.58
-9.58,0.63,-1.48
-9.65,0.33,-1.53
-9.72,0.50,-1.64
-9.66,0.34,-1.73
-9.85,0.54,-1.33
-9.78,0.74,-1.36
-9.37,0.65,-1.44
-9.56,0.24,-1.39
-9.55,0.70,-1.25
-9.62,0.50,-1.28
-9.73,0.28,-1.42
-9.82,0.19,-1.49
-9.49,0.59,-1.60
-9.52,0.62,-1.62
-9.66,0.28,-1.55
-9.70,0.76,-1.53
-9.68,0.46,-1.59
-9.50,0.51,-1.70
-9.61,0.83,-1.51
-9.65,0.67,-1.59
-9.49,0.48,-1.50
-9.63,0.55,-1.47
-9.70,0.81,-1.50
-9.61,0.49,-1.68
-9.56,0.49,-1.55
-9.56,0.35,-1.63
-9.69,0.34,-1.43
-9.66,0.67,-1.58
-9.64,0.29,-1.50
-9.58,0.68,-1.72
-9.69,0.33,-1.60
-9.50,0.69,-1.65
-9.62,0.75,-1.52
-9.64,0.90,-1.39
-9.63,0.70,-1.50
-9.58,0.68,-1.44
-9.76,0.76,-1.38
-9.58,0.42,-1.51
-9.72,0.45,-1.46
-9.72,0.95,-1.39
-9.59,0.77,-1.40
-9.69,0.74,-1.54
-9.64,0.89,-1.50
-9.69,0.95,-1.65
-9.56,0.40,-1.67
-9.59,0.74,-1.68
-9.68,0.47,-1.38
-9.45,0.27,-1.57
-9.63,0.50,-1.55
-9.68,0.64,-1.51
-9.58,0.57,-1.60
-9.61,0.66,-1.58
-9.53,0.50,-1.60
-9.64,0.66,-1.47
-9.69,0.80,-1.52
-9.63,0.81,-1.62
-9.57,0.60,-1.62
-9.60,0.91,-1.56
-9.60,0.82,-1.63
-9.64,0.60,-1.64
-9.63,0.68,-1.51
-9.63,0.87,-1.56
-9.53,0.91,-1.47
-9.61,0.83,-1.38
-9.59,0.73,-1.41
-9.45,0.73,-1.45
-9.65,0.57,-1.42
-9.58,0.83,-1.32
-9.64,0.66,-1.33
-9.63,0.75,-1.47
-9.63,0.73,-1.43
-9.61,0.75,-1.36
-9.63,0.84,-1.49
-9.60,0.78,-1.42
-9.66,0.80,-1.59
-9.59,0.68,-1.45
-9.71,0.70,-1.43
-9.71,0.71,-1.38
-9.62,0.68,-1.53
-9.62,0.68,-1.37
-9.65,0.70,-1.48
-9.64,0.39,-1.51
-9.50,0.51,-1.54
-9.58,0.50,-1.46
-9.59,0.88,-1.29
-9.59,0.76,-1.55
-9.67,0.72,-1.23
-9.46,0.53,-1.66
-9.66,0.45,-1.44
-9.54,0.48,-1.50
-9.47,0.68,-1.45
-9.68,0.50,-1.58
-9.69,0.64,-1.43
-9.65,0.63,-1.43
-9.51,0.49,-1.57
-9.73,0.59,-1.44
-9.66,0.57,-1.39
-9.76,0.64,-1.57
-9.71,0.39,-1.29
-9.49,1.11,-1.63
-9.61,0.66,-1.50
-9.76,0.69,-1.43
-9.68,0.98,-1.27
-9.60,0.64,-1.36
-9.46,0.39,-1.49
-9.54,0.14,-1.60
-9.64,0.43,-1.19
-9.63,0.37,-1.29
-9.68,0.49,-1.41
-9.62,0.31,-1.36
-9.71,0.28,-1.40
-9.64,0.18,-1.57
-9.63,0.19,-1.43
-9.61,0.23,-1.36
-9.53,0.18,-1.49
-9.66,0.23,-1.49
-9.54,0.41,-1.44
-9.60,0.35,-1.61
-9.51,0.20,-1.51
-9.59,0.29,-1.49
-9.71,0.27,-1.29
-9.63,0.38,-1.37
-9.60,0.34,-1.61
-9.83,0.12,-1.69
-9.53,0.19,-1.52
-9.55,0.41,-1.45
-9.65,0.24,-1.44
-9.62,0.39,-1.37
-9.70,0.32,-1.43
-9.73,0.36,-1.25
-9.76,0.26,-1.38
-9.62,0.64,-1.36
-9.61,0.30,-1.43
-9.74,0.30,-1.37
-9.63,0.56,-1.30
-9.61,0.68,-1.38
-9.67,0.12,-1.49
-9.64,0.55,-1.35
-9.62,0.44,-1.39
-9.63,0.35,-1.36
-9.58,0.06,-1.46
-9.65,0.60,-1.36
-9.63,0.23,-1.46
-9.55,0.26,-1.44
-9.61,0.42,-1.35
-9.57,0.59,-1.37
-9.62,0.39,-1.40
-9.64,0.42,-1.24
-9.55,0.35,-1.38
-9.58,0.24,-1.36
-9.58,0.37,-1.32
-9.73,0.34,-1.40
-9.58,0.16,-1.28
-9.58,0.33,-1.24
-9.58,0.40,-1.40
-9.62,0.43,-1.29
-9.68,0.19,-1.30
-9.70,0.43,-1.31
-9.66,0.57,-1.29
-9.70,0.34,-1.28
-9.64,0.57,-1.36
-9.58,0.24,-1.40
-9.72,0.08,-1.28
-9.73,0.41,-1.34
-9.68,0.45,-1.21
-9.71,0.20,-1.36
-9.62,0.49,-1.38
-9.53,0.25,-1.46
-9.72,0.29,-1.26
-9.70,0.45,-1.20
-9.68,0.25,-1.41
-9.57,0.29,-1.41
-9.59,0.30,-1.43
-9.50,0.30,-1.56
-9.55,0.26,-1.41
-9.55,0.32,-1.36
-9.64,0.20,-1.39
-9.60,0.34,-1.38
-9.71,0.26,-1.37
-9.51,0.11,-1.46
-9.54,0.16,-1.38
-9.58,0.37,-1.30
-9.60,0.28,-1.36
-9.58,0.38,-1.37
-9.71,0.34,-1.45
-9.62,0.23,-1.37
-9.64,0.29,-1.26
-9.60,0.35,-1.55
-9.61,0.47,-1.47
-9.55,0.26,-1.53
-9.61,0.36,-1.38
-9.61,0.29,-1.36
-9.59,0.16,-1.40
-9.57,0.31,-1.38
-9.58,0.25,-1.29
-9.61,0.29,-1.45
-9.73,0.28,-1.35
-9.69,0.34,-1.27
-9.60,0.29,-1.39
-9.58,0.31,-1.49
-9.61,0.48,-1.37
-9.76,0.46,-1.26
-9.68,0.48,-1.21
-9.79,0.28,-1.37
-9.66,0.51,-1.36
-9.74,0.50,-1.37
-9.47,0.17,-1.41
-9.73,0.36,-1.37
-9.71,0.14,-1.21
-9.66,0.59,-1.26
-9.64,0.23,-1.36
-9.58,0.32,-1.39
-9.62,0.31,-1.26
-9.59,0.23,-1.34
-9.68,0.42,-1.28
-9.73,0.34,-1.32
-9.71,0.20,-1.39
-9.58,0.44,-1.39
-9.68,0.37,-1.29
-9.68,0.08,-1.36
-9.66,0.28,-1.50
-9.72,0.53,-1.39
-9.54,0.15,-1.38
-9.58,0.25,-1.35
-9.49,-0.22,-1.08
-9.61,0.03,-1.27
-9.75,0.03,-1.22
-9.65,0.33,-1.11
-9.32,-0.34,-1.11
-9.72,-0.08,-1.18
-9.52,-0.30,-1.22
-9.72,0.32,-1.23
-9.62,0.26,-1.19
-9.75,0.19,-1.15
-9.73,0.07,-1.25
-9.67,-0.31,-1.21
-9.80,-0.14,-1.21
-9.50,-0.05,-1.26
-9.60,0.21,-1.09
-9.74,-0.04,-1.23
-9.78,-0.18,-1.31
-9.62,0.10,-1.33
-9.67,0.40,-1.35
-9.61,0.13,-1.34
-9.67,0.32,-1.47
-9.75,0.44,-1.32
-9.71,0.30,-1.34
-9.48,0.54,-1.28
-9.57,0.11,-1.22
-9.66,0.39,-1.42
-9.69,0.39,-1.57
-9.53,0.21,-1.46
-9.58,0.33,-1.33
-9.70,0.44,-1.35
-9.75,0.72,-1.25
-9.53,0.56,-1.41
-9.55,0.21,-1.46
-9.75,0.41,-1.38
-9.69,0.32,-1.40
-9.77,0.43,-1.25
-9.58,0.32,-1.38
-9.63,0.46,-1.29
-9.56,0.30,-1.45
-9.61,0.32,-1.28
-9.64,0.35,-1.27
-9.50,0.46,-1.37
-9.66,0.37,-1.31
-9.68,0.51,-1.30
-9.58,0.21,-1.30
-9.68,0.41,-1.23
-9.64,0.55,-1.34
-9.62,0.06,-1.42
-9.72,0.49,-1.32
-9.68,0.27,-1.40
-9.58,0.36,-1.53
-9.62,0.39,-1.30
-9.72,0.52,-1.36
-9.71,0.54,-1.27
-9.71,0.44,-1.24
-9.60,0.53,-1.26
-9.51,0.29,-1.32
-9.60,0.25,-1.37
-9.59,0.41,-1.40
-9.62,0.37,-1.40
-9.67,0.31,-1.36
-9.72,0.57,-1.33
-9.72,0.45,-1.26
-9.63,0.34,-1.32
-9.70,0.35,-1.20
-9.66,0.21,-1.34
-9.81,0.41,-1.31
-9.63,0.42,-1.30
-9.83,0.23,-1.15
-9.62,0.21,-1.38
-9.55,0.29,-1.31
-9.63,0.30,-1.44
-9.45,0.09,-1.42
-9.61,0.21,-1.34
-9.68,0.15,-1.29
-9.62,0.29,-1.34
-9.62,0.34,-1.38
-9.65,0.12,-1.23
-9.46,0.26,-1.37
-9.73,0.23,-1.27
-9.58,0.36,-1.38
-9.63,0.30,-1.35
-9.57,0.45,-1.35
-9.64,0.32,-1.35
-9.65,0.26,-1.33
-9.60,0.08,-1.36
-9.57,0.31,-1.43
-9.66,0.33,-1.25
-9.58,0.28,-1.29
-9.63,0.30,-1.27
-9.64,0.42,-1.25
-9.65,0.46,-1.25
-9.67,0.30,-1.36
-9.75,0.40,-1.28
-9.62,0.39,-1.48
-9.62,0.33,-1.36
-9.68,0.31,-1.48
-9.79,0.38,-1.37
-9.68,0.30,-1.55
-9.73,0.39,-1.34
-9.74,0.29,-1.31
-9.73,0.40,-1.25
-9.61,0.32,-1.36
-9.68,0.38,-1.25
-9.80,0.42,-1.30
-9.70,0.38,-1.35
-9.52,0.02,-1.33
-9.66,0.28,-1.28
-9.59,0.43,-1.27
-9.70,0.45,-1.25
-9.60,0.29,-1.24
-9.66,0.24,-1.20
-9.72,0.34,-1.32
-9.66,0.27,-1.36
-9.68,0.24,-1.40
-9.69,0.38,-1.32
-9.51,0.53,-1.37
-9.62,0.46,-1.31
-9.66,0.28,-1.39
-9.64,0.34,-1.26
-9.58,0.37,-1.49
-9.58,0.44,-1.40
-9.61,0.36,-1.32
-9.69,0.51,-1.21
-9.56,0.26,-1.38
-9.68,0.45,-1.40
-9.64,0.10,-1.33
-9.65,0.37,-1.18
-9.60,-0.18,-1.32
-9.57,0.53,-0.94
-9.62,0.13,-1.03
-9.67,0.45,-0.88
-9.60,0.59,-1.02
-9.69,0.41,-0.60
-9.75,-0.07,-0.26
-9.79,0.17,-0.15
-9.80,0.18,0.11
-9.48,-0.69,0.68
-9.40,-0.49,0.68
-9.21,-0.63,0.65
-9.23,-0.66,0.71
-9.40,-0.33,0.98
-9.41,-2.06,0.86
-9.55,-2.51,1.09
-9.02,-3.18,1.32
-8.85,-3.80,1.69
-7.36,-5.32,2.75
-5.96,-6.23,3.58
-5.03,-6.67,4.07
-3.18,-7.04,4.87
-1.75,-6.85,5.36
-1.14,-6.83,5.58
0.14,-6.02,6.15
0.31,-5.46,6.13
1.12,-4.30,6.32
1.05,-5.55,6.83
0.38,-5.52,7.23
0.23,-5.88,6.89
0.02,-5.31,6.59
-0.15,-5.88,6.48
0.13,-6.30,6.65
0.34,-5.17,5.90
-0.19,-6.21,7.68
-0.23,-5.35,6.11
0.73,-5.64,6.15
0.75,-7.66,6.88
1.31,-7.37,5.66
1.92,-7.01,5.32
2.69,-6.38,5.20
2.32,-7.07,5.00
2.28,-7.08,5.66
1.94,-7.22,5.61
1.87,-6.88,5.34
2.02,-7.12,5.81
2.32,-6.83,5.33
2.58,-6.44,4.56
2.65,-7.37,5.27
2.56,-7.26,4.99
2.38,-7.20,5.22
1.85,-6.38,5.69
-2.43,-6.45,4.99
1.38,-10.41,1.80
-0.69,-7.19,5.48
-0.38,-7.60,5.13
-0.04,-7.96,4.64
-0.28,-7.77,4.94
-0.40,-7.48,4.65
-0.46,-7.61,5.45
-0.82,-6.47,5.28
-1.29,-6.08,6.23
-2.16,-5.43,6.51
-2.65,-5.38,7.32
-4.01,-3.28,6.81
-4.13,-2.89,6.58
-5.87,-0.05,6.63
-7.43,0.56,5.48
-7.13,0.51,5.55
-8.86,0.92,3.74
-8.82,1.12,2.63
-9.52,2.11,1.67
-9.39,1.73,0.77
-10.46,1.12,0.46
-9.88,0.64,0.52
-9.52,0.65,-0.01
-9.64,0.79,0.27
-9.42,0.91,0.07
-9.47,0.92,0.18
-9.56,1.05,0.15
-9.37,1.43,0.38
-9.96,1.05,0.33
-9.90,1.14,0.35
-9.70,0.88,0.90
-9.76,-1.40,0.72
-9.30,-1.82,0.52
-9.62,-1.94,1.61
-8.87,-2.54,2.20
-8.78,-0.90,1.43
-8.15,-3.08,3.26
-7.34,-3.70,3.30
-7.84,-6.53,3.60
-7.52,-5.16,4.00
-6.34,-6.52,4.24
-4.19,-7.61,4.87
-2.49,-6.34,5.48
-0.48,-6.10,6.00
1.35,-4.71,6.47
2.85,-4.91,6.76
2.86,-4.29,6.49
2.63,-5.16,7.00
2.71,-5.14,6.95
2.26,-5.58,7.11
2.23,-5.21,6.73
2.23,-5.51,7.18
2.08,-5.60,6.90
2.10,-5.99,6.87
2.23,-5.67,6.78
2.08,-4.73,6.31
0.87,-3.53,5.45
0.59,-3.97,6.46
1.93,-4.97,5.36
1.12,-6.94,5.62
2.35,-6.65,4.78
3.21,-6.93,4.18
3.14,-8.38,4.02
3.16,-8.32,4.51
3.42,-7.10,4.46
3.85,-7.24,4.64
4.30,-6.71,3.90
4.30,-6.84,4.02
4.38,-7.07,3.59
4.11,-7.95,4.79
4.12,-6.94,3.90
3.92,-7.29,4.26
4.01,-6.53,3.83
4.01,-7.05,4.55
4.23,-7.19,3.72
3.80,-7.59,4.12
3.85,-6.93,3.98
3.70,-7.50,4.15
3.69,-7.02,4.07
0.28,-6.13,5.39
0.68,-8.82,2.06
-0.22,-10.19,3.31
-0.67,-8.66,3.81
-0.59,-8.02,3.83
-0.75,-8.16,4.11
-0.66,-8.14,4.06
-0.70,-8.22,4.00
-0.97,-8.11,4.10
-1.22,-7.83,4.74
-1.84,-7.90,5.17
-1.49,-6.88,4.77
-2.24,-6.13,5.51
-3.65,-4.20,7.05
-4.72,-3.18,6.55
-5.64,-1.73,6.77
-6.99,-0.40,6.39
-6.81,0.04,5.19
-8.51,0.35,4.13
-8.73,0.77,2.26
-9.39,1.02,2.18
-9.82,1.45,1.07
-9.73,1.17,0.95
-9.34,1.65,0.37
-9.06,1.42,-0.03
-9.49,0.48,0.79
-9.56,0.64,0.53
-9.54,0.96,0.43
-9.58,0.77,0.46
-9.61,0.84,0.57
-9.48,0.60,0.53
-9.49,0.70,0.67
-9.50,0.66,0.59
-9.53,0.75,0.63
-9.52,0.75,0.67
-9.50,0.68,0.58
-9.58,0.68,0.47
-9.53,0.75,0.44
-9.53,0.71,0.48
-9.52,0.72,0.59
-9.58,0.77,0.55
-9.51,0.76,0.61
-9.55,0.49,0.69
-9.55,-0.21,1.21
-9.38,-0.22,0.81
-9.85,-0.21,0.82
-9.82,-1.01,0.33
-9.73,-1.45,0.24
-9.68,-1.57,0.11
-9.86,-2.25,0.69
-8.72,-4.28,1.38
-8.57,-4.23,1.75
-7.97,-6.20,2.57
-6.26,-5.69,3.66
-4.53,-7.20,4.39
-2.89,-6.91,5.32
-0.79,-5.55,6.33
1.43,-5.22,7.31
2.45,-3.72,6.56
3.61,-3.61,6.80
3.85,-3.65,7.29
3.58,-3.74,7.42
3.43,-3.94,7.43
3.40,-4.00,7.54
2.73,-4.11,7.74
3.14,-3.93,7.57
2.94,-5.35,8.33
3.29,-3.77,7.00
3.46,-3.60,6.67
3.51,-5.23,6.63
3.56,-6.44,6.00
3.67,-3.10,6.23
3.21,-4.07,4.34
4.19,-8.51,4.95
3.93,-5.08,3.49
4.87,-7.12,4.04
4.68,-6.40,3.75
5.29,-6.68,3.47
4.34,-6.49,4.32
4.46,-7.10,4.00
4.43,-6.76,3.89
4.23,-7.09,3.87
4.09,-7.31,4.30
4.20,-7.25,3.97
4.19,-7.12,4.14
4.13,-7.21,4.15
4.24,-7.41,4.16
4.17,-7.07,4.02
4.21,-7.21,4.08
4.16,-7.30,4.31
4.23,-7.20,3.97
4.19,-7.17,4.21
4.09,-7.28,4.14
4.15,-7.27,4.10
4.09,-7.21,4.03
4.14,-7.32,4.04
3.99,-7.14,4.09
3.86,-7.24,4.45
3.72,-6.52,4.44
2.42,-5.94,4.19
1.30,-9.40,3.65
0.69,-10.37,3.26
0.23,-9.77,3.32
-0.38,-8.68,3.58
-0.58,-8.54,3.72
-0.62,-8.50,3.72
-0.44,-8.31,3.43
-0.71,-8.81,3.63
-0.83,-8.55,3.46
-0.71,-8.19,4.01
-0.63,-8.21,3.76
-0.70,-8.38,3.86
-0.77,-8.28,3.91
-0.79,-8.22,4.11
-0.57,-8.20,3.98
-0.60,-8.24,3.85
-0.83,-8.07,3.94
-0.89,-6.53,3.95
-2.97,-6.54,6.17
-3.33,-5.18,6.01
-4.69,-3.47,7.25
-5.67,-1.53,6.69
-7.50,-0.93,5.98
-8.49,0.39,4.58
-9.16,0.80,3.47
-8.95,1.51,2.14
-10.45,1.78,1.30
-10.66,1.45,1.30
-9.11,0.89,0.68
-9.23,1.66,-0.04
-9.75,0.28,1.48
-9.41,0.87,0.42
-9.61,0.77,0.81
-9.55,0.80,0.73
-9.51,0.53,0.77
-9.34,0.99,0.57
-9.61,0.71,0.76
-9.50,0.55,0.64
-9.55,0.61,0.67
-9.59,0.46,0.55
-9.52,0.53,0.50
-9.46,0.59,0.43
-9.66,0.44,0.53
-9.65,0.57,0.44
-9.59,0.44,0.50
-9.53,0.49,0.52
-9.39,0.56,0.56
-9.60,0.40,0.48
-9.66,0.56,0.28
-9.49,0.85,0.45
-9.52,0.63,0.41
-9.51,0.49,0.45
-9.59,0.99,0.44
-9.59,0.62,0.63
-9.48,0.90,0.61
-9.49,0.61,0.68
-9.54,0.46,0.72
-9.61,0.25,0.58
-9.86,-0.18,0.93
-9.51,-0.30,0.97
-9.23,-1.51,1.39
-9.89,-1.70,1.51
-9.12,-1.23,1.69
-8.16,-1.25,1.84
-8.46,-1.98,2.32
-8.58,-1.06,2.07
-9.07,-1.05,1.85
-9.39,-2.33,1.97
-9.02,-2.00,1.15
-8.80,-2.51,2.34
-8.90,-2.70,2.14
-8.38,-3.08,2.10
-8.67,-3.04,2.20
-8.65,-4.64,2.77
-8.51,-5.37,3.63
-7.45,-6.29,4.10
-5.37,-5.45,4.81
-3.61,-5.79,6.02
-1.44,-5.72,7.12
0.85,-3.55,5.68
2.44,-4.94,7.44
2.26,-4.06,7.41
2.14,-3.62,7.33
2.48,-3.93,7.80
2.25,-4.60,7.43
2.17,-4.64,7.68
2.52,-5.80,7.38
2.48,-5.12,7.28
3.32,-4.74,6.23
2.60,-4.59,6.59
2.64,-8.26,7.12
2.54,-7.07,5.34
2.83,-7.50,5.20
3.59,-7.18,3.54
3.09,-8.48,3.79
3.12,-9.09,3.87
3.06,-7.49,3.59
2.46,-8.21,4.08
3.06,-8.01,3.99
2.49,-7.77,3.77
2.86,-8.15,3.93
2.73,-7.76,4.20
2.92,-8.01,3.81
2.93,-8.18,4.26
2.90,-7.63,3.92
2.97,-8.21,3.98
2.86,-7.92,4.18
2.91,-7.49,3.88
3.06,-7.58,4.09
3.06,-7.80,4.13
2.97,-7.96,4.40
2.99,-7.55,4.09
3.09,-7.82,4.18
3.01,-7.76,4.03
3.10,-7.99,3.85
3.15,-7.82,3.98
2.96,-7.90,4.17
2.95,-7.66,4.51
1.53,-6.28,4.71
1.54,-9.29,1.08
0.45,-10.89,2.82
-0.09,-9.36,2.31
0.19,-8.17,2.94
0.09,-8.97,3.08
-0.10,-8.74,3.30
0.25,-8.64,2.97
0.21,-8.71,3.46
0.45,-7.94,3.87
0.47,-7.53,4.27
0.28,-7.13,3.96
0.05,-8.04,5.24
-1.07,-8.46,7.01
-0.08,-6.42,6.52
-1.25,-4.50,6.00
-2.98,-1.76,7.23
-5.57,-0.93,7.71
-7.13,0.68,7.13
-7.66,1.64,5.73
-7.95,1.83,4.95
-8.30,1.31,3.29
-8.65,1.83,2.84
-9.89,1.47,2.33
-9.30,1.20,2.26
-9.39,1.41,0.90
-10.00,1.50,0.86
-9.84,1.10,1.35
-9.35,0.87,0.93
-9.49,0.99,0.97
-9.51,0.91,0.94
-9.39,1.12,0.97
-9.49,0.94,0.96
-9.39,1.09,0.97
-9.38,0.97,1.13
-9.49,0.99,1.04
-9.45,0.86,1.08
-9.46,0.66,1.05
-9.34,1.01,0.99
-9.51,0.37,1.50
-9.40,-0.23,1.23
-9.53,-0.42,1.10
-9.38,-0.81,0.68
-9.51,-0.79,0.80
-9.82,-1.26,0.53
-9.42,-1.15,0.88
-9.28,-1.95,0.97
-8.97,-2.22,1.43
-8.68,-3.90,2.55
-8.60,-4.37,2.12
-7.46,-2.78,1.55
-8.65,-3.05,2.03
-8.86,-3.48,2.15
-8.50,-3.80,1.58
-8.59,-3.50,1.51
-8.62,-3.46,1.69
-8.50,-3.77,1.64
-8.55,-3.50,1.51
-8.52,-3.86,1.79
-8.33,-4.71,2.05
-8.27,-5.30,2.63
-9.24,-6.56,3.14
-6.42,-5.04,3.86
-4.70,-6.16,5.07
-2.58,-5.29,5.76
-0.72,-4.95,6.75
1.58,-5.36,7.03
2.08,-4.39,6.34
2.47,-4.70,7.19
2.57,-4.01,6.96
2.10,-4.92,7.48
2.03,-5.07,7.78
2.22,-4.09,7.41
2.49,-4.85,7.25
3.08,-5.17,6.32
3.54,-4.88,5.12
4.00,-8.86,6.31
1.79,-4.25,4.15
3.62,-7.96,6.08
3.46,-9.23,4.77
3.87,-6.13,3.84
4.52,-7.19,3.13
4.08,-7.66,3.96
3.62,-7.56,3.95
3.10,-7.65,3.90
3.38,-8.30,3.72
3.48,-7.81,3.85
3.08,-7.81,4.09
3.19,-7.84,4.02
2.81,-7.86,4.33
3.06,-7.70,3.92
3.10,-7.60,4.06
2.95,-7.81,4.29
2.92,-7.47,4.16
3.08,-7.71,4.36
2.94,-7.78,4.38
3.13,-7.39,4.13
2.92,-7.69,4.10
2.90,-7.95,4.36
2.98,-7.58,4.30
2.98,-7.64,4.12
2.94,-7.80,4.42
3.06,-7.70,4.23
2.96,-7.69,4.07
2.80,-6.55,5.03
0.27,-6.26,4.51
-1.55,-9.51,3.06
-1.55,-10.53,2.54
-2.33,-7.83,3.79
-1.81,-8.04,3.94
-1.46,-8.09,4.07
-1.54,-7.76,4.05
-1.42,-8.60,3.93
-1.27,-8.22,3.89
-1.19,-7.79,4.38
-1.19,-7.95,4.16
-0.66,-8.12,4.06
-0.99,-7.53,5.32
-1.20,-6.79,5.67
-1.12,-4.75,6.29
-1.09,-3.94,7.41
-2.44,-2.04,7.41
-4.03,0.52,8.15
-4.67,0.26,7.26
-6.89,0.75,6.58
-8.14,1.21,5.86
-8.07,1.62,3.50
-8.98,2.54,2.66
-10.41,1.61,1.31
-9.27,0.80,1.25
-9.21,1.02,1.17
-9.76,0.01,1.10
-9.58,0.55,0.79
-9.41,0.27,0.66
-9.46,0.10,0.85
-9.34,0.29,0.75
-8.69,0.83,0.74
-9.93,-0.23,0.75
-9.38,0.38,0.61
-9.58,0.23,0.36
-9.74,0.32,0.54
-9.42,0.58,0.28
-9.52,0.61,0.47
-9.54,0.52,0.59
-9.63,0.49,0.70
-9.54,0.54,0.73
-9.42,0.35,0.66
-9.51,0.47,0.64
-9.54,0.40,0.65
-9.61,0.32,0.70
-9.52,0.17,0.75
-9.54,0.24,0.71
-9.60,-0.34,0.84
-9.43,-0.79,0.94
-9.35,-0.45,0.71
-9.32,-0.68,0.74
-9.26,-1.96,1.04
-9.10,-2.12,0.75
-9.35,-1.95,0.36
-9.82,-3.17,0.70
-10.09,-4.29,0.97
-8.40,-5.31,2.20
-6.79,-5.38,2.92
-5.19,-6.29,3.96
-3.19,-7.67,6.12
-0.07,-5.60,6.07
0.32,-5.00,6.48
1.47,-4.00,6.34
2.16,-4.89,7.21
1.99,-4.97,7.29
1.77,-4.73,7.42
1.52,-5.03,7.35
1.70,-4.73,7.23
1.59,-5.21,7.39
1.69,-5.33,7.16
1.70,-5.56,7.11
1.85,-5.95,6.65
1.65,-5.42,6.30
2.56,-5.78,6.00
2.37,-5.57,5.60
1.74,-7.91,5.20
2.70,-8.49,6.12
2.68,-6.88,5.41
3.22,-5.91,5.04
3.22,-6.32,4.46
3.71,-7.44,4.98
3.69,-7.92,4.37
3.78,-8.40,3.73
3.87,-7.45,4.24
3.94,-7.64,3.80
3.90,-7.48,3.73
3.68,-7.78,4.18
3.53,-7.52,3.86
3.70,-7.91,3.88
3.40,-7.87,3.66
3.47,-7.79,3.72
3.31,-7.90,3.90
3.44,-7.68,3.54
3.29,-7.86,3.68
3.32,-7.91,3.62
2.91,-7.65,4.23
2.93,-7.79,4.28
3.25,-7.56,3.63
3.10,-8.20,3.79
3.04,-7.69,4.01
2.79,-7.59,4.25
1.50,-4.84,5.29
1.18,-8.60,3.64
0.48,-9.72,4.48
-0.17,-8.01,5.09
-0.19,-7.53,5.11
0.10,-7.98,4.83
-0.07,-7.35,4.90
0.12,-7.73,4.84
-0.16,-7.60,5.16
-1.37,-4.94,6.27
-1.65,-3.51,6.62
-3.13,-2.04,7.46
-5.29,-0.44,8.03
-6.08,0.65,6.58
-7.49,1.66,5.80
-7.97,1.59,4.12
-9.34,1.39,2.62
-10.87,1.64,1.56
-9.98,3.00,0.88
-9.28,1.34,-0.11
-9.28,1.44,0.42
-9.75,1.38,0.19
-9.50,1.25,0.33
-9.57,1.27,0.34
-9.56,1.09,0.45
-9.51,1.01,0.31
-9.56,0.97,0.44
-9.54,1.04,0.40
-9.52,1.09,0.42
-9.50,1.13,0.36
-9.55,1.06,0.37
-9.54,1.65,0.27
-9.44,1.49,-0.33
-9.49,-0.70,1.03
-9.63,-1.75,1.02
-9.46,-3.65,0.52
-8.49,-6.55,-0.04
-7.44,-7.23,-1.51
-6.00,-7.89,-1.83
-3.87,-8.81,-1.02
-2.41,-8.78,-0.69
-0.87,-8.14,1.20
-0.25,-6.98,4.11
0.34,-6.80,7.02
0.23,-3.73,7.62
1.15,-5.38,7.28
2.22,-5.77,6.05
3.36,-6.06,4.70
3.84,-6.81,2.10
2.71,-7.01,1.58
-0.09,-8.69,-0.60
-2.38,-9.65,-0.47
-5.12,-10.50,-0.61
-5.37,-11.90,-2.01
-3.57,-11.01,-2.83
-1.57,-10.45,-1.95
1.23,-7.96,-0.33
2.79,-6.81,2.95
3.47,-5.66,4.75
3.88,-2.47,5.32
3.03,-3.19,8.31
2.08,-1.62,10.38
2.89,-2.07,8.36
3.61,-3.40,7.44
5.13,-4.49,5.05
4.48,-5.58,3.38
3.77,-7.31,2.13
2.60,-8.21,0.01
-0.09,-9.56,-1.13
-1.78,-9.16,-1.97
-4.91,-10.41,-2.10
-5.06,-11.33,-2.53
-5.24,-10.66,-1.97
-3.45,-10.32,-1.99
-1.16,-9.58,-1.66
1.70,-9.06,-0.36
3.31,-6.94,1.25
4.16,-5.27,3.98
5.11,-4.92,6.01
5.53,-3.78,5.70
5.32,-3.11,6.67
4.28,-3.59,7.98
4.44,-1.95,7.70
3.51,-2.87,8.54
3.97,-2.50,7.70
4.67,-4.29,6.46
4.54,-6.24,5.60
5.02,-5.61,4.18
4.94,-6.49,2.22
3.92,-8.01,1.85
2.33,-8.94,-0.22
0.86,-8.97,-0.42
-2.70,-8.54,-0.43
-4.94,-8.52,-0.53
-7.13,-7.22,-0.28
-8.11,-5.83,0.29
-9.57,-4.50,1.67
-10.21,-2.59,1.13
-10.11,-3.37,1.41
-8.88,-2.33,0.62
-8.44,-1.02,1.07
-8.99,-0.41,2.15
-9.44,0.39,1.39
-9.41,-0.18,0.95
-9.41,0.00,0.79
-9.48,0.69,0.88
-9.32,0.25,0.68
-9.97,0.28,0.96
-9.36,0.37,0.14
-9.60,0.66,0.49
-9.47,0.34,0.44
-9.38,0.20,0.55
-9.60,0.24,0.53
-9.45,0.30,0.37
-9.63,0.48,0.56
-9.40,0.23,0.32
-9.55,0.39,0.32
-9.60,0.55,0.29
-9.61,0.44,0.31
-9.45,0.27,0.10
-9.55,0.38,0.27
-9.50,-0.01,0.15
-9.42,0.25,0.19
-9.58,0.61,0.28
-9.54,0.36,0.26
-9.70,0.40,0.26
-9.48,0.27,0.24
-9.80,0.13,0.35
-9.58,0.29,0.18
-9.67,0.10,0.20
-9.51,0.03,0.25
-9.52,0.32,0.11
-9.64,0.29,0.19
-9.55,0.36,0.22
-9.51,0.75,0.15
-9.52,0.84,0.12
-9.55,0.69,0.28
-9.52,0.79,0.24
-9.61,0.74,0.31
-9.66,0.74,0.17
-9.54,0.68,0.21
-9.62,0.71,0.20
-9.51,0.66,0.18
-9.60,0.63,0.23
-9.57,0.73,0.22
-9.66,0.40,0.14
-9.61,0.69,0.28
-9.48,0.80,0.30
-9.48,0.46,0.27
-9.57,0.43,0.30
-9.58,0.62,0.29
-9.58,0.46,0.38
-9.60,0.04,0.40
-9.59,0.26,0.40
-9.57,0.10,0.31
-9.56,0.15,0.25
-9.61,-0.11,0.34
-9.60,-0.11,0.15
-9.30,0.21,0.21
-9.58,0.14,0.01
-9.71,-0.16,0.06
-9.51,0.00,-0.17
-9.40,-0.18,0.04
-9.76,-0.23,0.18
-9.57,-0.17,0.07
-9.63,0.03,0.14
-9.60,-0.17,0.04
-9.50,-0.10,0.06
-9.57,0.14,0.01
-9.53,-0.05,0.12
-9.59,-0.19,0.08
-9.68,0.07,0.14
-9.51,-0.07,0.09
-9.54,-0.01,0.22
-9.58,-0.01,0.25
-9.65,0.06,0.13
-9.62,0.14,0.17
-9.72,0.08,0.13
-9.67,-0.24,0.17
-9.50,0.21,0.13
-9.56,0.20,0.02
-9.60,0.23,0.05
-9.65,0.37,0.10
-9.63,0.17,0.15
-9.64,0.17,0.10
-9.52,0.16,0.12
-9.90,0.34,0.08
-9.48,0.35,-0.08
-9.58,0.43,0.07
-9.72,-0.27,0.04
-9.52,0.45,0.39
-9.54,0.56,0.42
-9.37,0.93,0.44
-9.72,0.78,0.34
-9.49,1.94,0.12
-9.59,0.68,0.49
-9.36,0.70,0.51
-9.69,0.63,0.53
-9.55,0.55,0.50
-9.44,0.69,0.29
-9.47,0.53,0.80
-9.49,0.53,0.70
-9.52,1.40,0.68
-9.39,1.28,0.58
-9.20,0.50,0.68
-9.52,0.74,0.74
-9.55,0.66,0.55
-9.46,1.09,0.36
-9.56,1.01,0.39
-9.49,1.08,-0.40
-9.93,0.30,0.48
-9.79,0.30,0.10
-9.73,0.00,0.41
-8.29,-1.58,-2.77
-10.72,1.45,0.21
-10.09,-0.41,-0.09
-9.57,0.91,-0.30
-9.59,1.15,-0.40
-9.06,0.54,-1.28
-9.65,-0.37,-0.78
-9.39,-0.44,-0.79
-9.74,-1.47,-1.87
-9.24,-0.70,-1.58
-9.60,-0.79,-1.56
-10.10,-1.37,-0.61
-10.30,-0.78,-1.11
-9.79,-0.29,-0.78
-9.30,-0.27,-0.91
-9.60,0.00,-1.30
-9.74,-0.17,-1.04
-9.59,-0.22,-1.19
-9.62,0.60,-1.81
-9.06,-0.03,-1.97
-9.51,-0.46,-1.17
-9.31,0.10,-2.03
-9.52,-0.98,-0.72
-9.80,0.09,-0.82
-9.72,-0.00,-1.02
-9.75,-0.03,-0.93
-9.64,-0.16,-1.86
-9.61,-0.05,-1.27
-9.76,-0.06,-1.57
-9.69,-0.24,-1.49
-9.68,-0.09,-1.32
-9.61,-0.45,-1.46
-9.47,0.20,-1.36
-9.64,-0.74,-1.59
-9.55,0.00,-1.58
-9.51,-0.27,-1.65
-9.61,-0.11,-1.79
-9.60,-0.20,-1.80
-9.48,-0.04,-1.47
-9.58,0.35,-1.95
-9.73,0.08,-1.44
-9.63,-0.28,-1.82
-9.51,0.48,-1.61
-9.64,-0.25,-1.62
-9.71,-0.01,-1.47
-9.24,-0.34,-2.05
-9.48,0.41,-2.22
-9.67,-0.14,-1.23
-9.59,0.13,-1.66
-9.61,0.19,-1.68
-9.57,0.00,-1.81
-9.48,0.08,-1.63
-9.48,0.03,-1.82
-9.56,0.07,-1.71
-9.67,0.08,-1.84
-9.75,-0.05,-1.69
-9.51,0.00,-1.62
-9.33,0.04,-1.56
-9.91,0.00,-1.71
-9.55,0.35,-1.69
-9.62,0.39,-1.82
-9.74,0.06,-1.80
-9.68,0.17,-1.72
-9.56,0.33,-1.67
-9.63,0.34,-1.89
-9.58,0.39,-1.81
-9.50,0.08,-1.63
-9.49,0.22,-1.75
-9.58,0.29,-1.73
-9.62,0.26,-1.51
-9.57,0.23,-1.58
-9.59,0.35,-1.59
-9.60,0.24,-1.47
-9.52,0.34,-1.53
-9.75,-0.08,-1.62
-9.49,0.17,-1.55
-9.57,0.22,-1.81
-9.67,0.39,-1.71
-9.63,0.03,-1.64
-9.57,0.29,-1.62
-9.64,0.13,-1.59
-9.73,0.11,-1.54
-9.73,0.27,-1.60
-9.62,0.23,-1.54
-9.57,0.23,-1.60
-9.50,0.23,-1.63
-9.59,0.21,-1.58
-9.51,0.04,-1.71
-9.62,0.13,-1.52
-9.60,0.08,-1.66
-9.58,0.23,-1.59
-9.58,0.20,-1.56
-9.64,0.17,-1.56
-9.70,-0.12,-1.61
-9.68,0.12,-1.64
-9.65,0.28,-1.67
-9.63,0.19,-1.59
-9.78,0.18,-1.61
-9.66,0.23,-1.55
-9.67,0.34,-1.64
-9.60,0.33,-1.73
-9.62,0.15,-1.70
-9.67,0.16,-1.58
-9.63,0.04,-1.66
-9.66,0.09,-1.66
-9.62,0.24,-1.57
-9.62,0.08,-1.74
-9.49,0.13,-1.70
-9.64,0.30,-1.57
-9.62,0.22,-1.63
-9.62,0.35,-1.58
-9.58,-0.04,-1.62
-9.66,0.44,-1.57
-9.65,0.28,-1.56
-9.63,0.27,-1.51
-9.61,0.26,-1.59
-9.61,0.17,-1.58
-9.63,0.15,-1.56
-9.61,0.22,-1.65
-9.56,0.20,-1.65
-9.56,0.26,-1.47
-9.64,0.14,-1.56
-9.61,0.11,-1.69
-9.60,0.19,-1.55
-9.64,0.23,-1.54
-9.61,0.20,-1.52
-9.71,0.19,-1.56
-9.67,0.12,-1.56
-9.71,0.32,-1.51
-9.63,0.17,-1.51
-9.69,0.17,-1.51
-9.59,0.13,-1.53
-9.61,0.22,-1.45
-9.66,0.14,-1.47
-9.51,0.11,-1.56
-9.53,0.13,-1.52
-9.61,0.09,-1.55
-9.57,0.20,-1.52
-9.65,0.24,-1.50
-9.61,0.21,-1.58
-9.76,0.25,-1.51
-9.58,0.12,-1.56
-9.65,0.25,-1.49
-9.57,0.12,-1.64
-9.69,0.41,-1.48
-9.72,0.22,-1.57
-9.62,0.11,-1.51
-9.66,0.42,-1.45
-9.65,0.48,-1.67
-9.57,0.18,-1.71
-9.49,0.14,-1.58
-9.61,0.31,-1.56
-9.62,0.06,-1.60
-9.69,0.09,-1.47
-9.62,0.20,-1.60
-9.63,0.22,-1.48
-9.62,0.23,-1.54
-9.75,0.06,-1.47
-9.55,0.21,-1.56
-9.66,0.15,-1.54
-9.59,0.09,-1.62
-9.57,0.20,-1.52
-9.62,0.24,-1.55
-9.65,0.06,-1.62
-9.72,0.19,-1.56
-9.57,0.03,-1.54
-9.66,0.01,-1.56
-9.59,0.01,-1.66
-9.67,0.24,-1.60
-9.54,0.13,-1.60
-9.61,-0.04,-1.73
-9.66,0.21,-1.48
-9.60,0.03,-1.70
-9.68,0.12,-1.47
-9.64,0.26,-1.58
-9.62,0.28,-1.46
-9.62,-0.01,-1.62
-9.62,-0.03,-1.56
-9.51,0.01,-1.49
-9.62,-0.26,-1.53
-9.66,-0.13,-1.58
-9.76,0.11,-1.42
-9.69,0.03,-1.54
-9.69,0.06,-1.51
-9.72,-0.06,-1.44
-9.63,0.12,-1.47
-9.61,0.19,-1.43
-9.71,-0.02,-1.49
-9.62,-0.20,-1.49
-9.44,-0.09,-1.54
-9.58,-0.08,-1.56
-9.75,0.04,-1.44
-9.61,0.19,-1.47
-9.58,0.00,-1.45
-9.58,-0.08,-1.52
-9.71,-0.02,-1.50
-9.63,-0.08,-1.31
-9.68,-0.08,-1.56
-9.56,-0.00,-1.36
-9.58,-0.06,-1.52
-9.57,-0.03,-1.39
-9.62,0.19,-1.29
-9.66,-0.02,-1.38
-9.62,0.13,-1.29
-9.56,0.04,-1.48
-9.49,-0.17,-1.49
-9.51,-0.13,-1.36
-9.62,0.03,-1.48
-9.56,-0.08,-1.39
-9.57,0.18,-1.39
-9.60,-0.04,-1.49
-9.68,-0.04,-1.51
-9.67,0.08,-1.60
-9.69,0.10,-1.47
-9.61,0.07,-1.47
-9.63,-0.09,-1.51
-9.59,-0.08,-1.52
-9.62,-0.09,-1.51
-9.65,0.05,-1.39
-9.57,-0.02,-1.51
-9.58,0.11,-1.44
-9.62,0.10,-1.51
-9.65,0.04,-1.39
-9.64,0.02,-1.37
-9.67,0.06,-1.49
-9.61,0.19,-1.37
-9.63,-0.03,-1.47
-9.65,0.11,-1.46
-9.55,-0.10,-1.43
-9.61,0.13,-1.47
-9.60,-0.04,-1.37
-9.54,0.16,-1.39
-9.59,-0.01,-1.61
-9.65,0.15,-1.45
-9.68,-0.12,-1.64
-9.64,0.12,-1.45
-9.62,-0.01,-1.45
-9.53,0.13,-1.57
-9.68,-0.07,-1.52
-9.58,0.09,-1.47
-9.61,0.18,-1.41
-9.61,-0.00,-1.51
-9.46,-0.22,-1.52
-9.62,0.18,-1.44
-9.70,-0.12,-1.47
-9.61,0.15,-1.41
-9.70,0.12,-1.39
-9.58,-0.17,-1.51
-9.61,0.14,-1.40
-9.72,-0.22,-1.59
-9.64,0.14,-1.38
-9.66,0.09,-1.49
-9.71,0.03,-1.51
-9.66,0.21,-1.47
-9.62,-0.01,-1.47
-9.66,0.16,-1.39
-9.64,0.00,-1.45
-9.60,-0.06,-1.48
-9.62,0.11,-1.40
-9.73,0.09,-1.43
-9.51,-0.07,-1.48
-9.61,-0.22,-1.48
-9.75,0.10,-1.32
-9.65,-0.11,-1.53
-9.69,-0.01,-1.39
-9.71,0.11,-1.37
-9.59,0.06,-1.55
-9.66,0.06,-1.29
-9.58,0.10,-1.50
-9.57,-0.08,-1.58
-9.61,-0.11,-1.59
-9.37,0.57,-0.64
-9.62,0.70,-0.57
-9.76,0.60,-0.71
-9.59,0.46,-0.67
-9.72,0.51,-0.65
-9.71,0.59,-0.76
-9.60,0.58,-0.83
-9.64,0.52,-0.86
-9.68,0.49,-0.83
-9.65,0.46,-0.97
-9.55,0.69,-0.92
-9.62,0.56,-1.10
-9.63,0.58,-0.98
-9.57,0.59,-1.05
-9.58,0.59,-1.16
-9.73,0.45,-1.33
-9.76,0.63,-0.97
-9.56,0.37,-1.24
-9.52,0.31,-1.39
-9.68,0.21,-1.48
-9.62,0.28,-1.40
-9.63,0.30,-1.36
-9.69,0.09,-1.46
-9.42,0.23,-1.41
-9.63,0.22,-1.48
-9.71,-0.11,-1.41
-9.72,0.17,-1.15
-9.23,-0.25,-1.45
-9.56,-0.05,-1.32
-9.64,-0.06,-1.50
-9.77,0.03,-1.68
-9.62,0.07,-1.54
-9.83,0.45,-1.53
-9.64,0.38,-1.69
-9.62,0.41,-1.80
-9.63,0.36,-1.50
-9.60,0.34,-1.25
-9.70,0.26,-1.56
-9.55,0.15,-1.69
-9.61,0.38,-1.72
-9.56,0.11,-1.60
-9.71,0.12,-1.44
-9.61,0.34,-1.59
-9.68,0.23,-1.38
-9.44,0.16,-1.39
-9.65,0.26,-1.50
-9.66,0.10,-1.37
-9.61,0.22,-1.40
-9.72,0.26,-1.36
-9.55,0.25,-1.33
-9.75,0.02,-1.39
-9.77,0.20,-1.38
-9.63,0.36,-1.14
-9.76,0.19,-1.29
-9.62,0.33,-1.11
-9.56,0.18,-1.24
-9.56,0.36,-1.29
-9.61,0.18,-1.24
-9.69,0.24,-1.37
-9.48,0.11,-1.26
-9.60,-0.07,-1.25
-9.63,0.16,-1.38
-9.58,0.13,-1.54
-9.62,0.01,-1.49
-9.65,0.11,-1.43
-9.65,-0.02,-1.34
-9.58,0.05,-1.54
-9.70,-0.04,-1.47
-9.66,0.28,-1.49
-9.55,0.43,-1.50
-9.65,0.40,-1.60
-9.64,0.25,-1.60
-9.67,0.25,-1.47
-9.70,0.31,-1.57
-9.64,0.31,-1.54
-9.66,0.16,-1.49
-9.65,0.20,-1.50
-9.64,0.20,-1.58
-9.70,0.18,-1.27
-9.56,0.28,-1.56
-9.66,0.23,-1.65
-9.72,0.22,-1.41
-9.64,0.26,-1.39
-9.47,-0.03,-1.46
-9.71,0.11,-1.30
-9.77,0.48,-1.43
-9.62,0.23,-1.12
-9.39,0.13,-1.13
-9.67,0.48,-0.60
-9.59,0.35,-0.66
-9.53,0.26,-0.83
-9.88,0.41,-1.01
-9.52,0.12,-1.39
-9.64,0.32,-1.33
-9.65,0.20,-1.43
-9.63,0.21,-1.33
-9.62,0.10,-1.35
-9.59,0.07,-1.46
-9.53,0.28,-1.37
-9.50,0.00,-1.20
-9.61,0.24,-1.52
-9.64,0.07,-1.47
-9.68,0.23,-1.40
-9.64,0.11,-1.62
-9.74,0.19,-1.62
-9.70,0.20,-1.51
-9.66,0.06,-1.62
-9.57,0.06,-1.54
-9.46,0.11,-1.83
-9.59,0.19,-1.72
-9.78,0.18,-1.70
-9.53,0.11,-1.78
-9.58,0.11,-1.91
-9.63,-0.05,-1.84
-9.73,0.14,-1.83
-9.63,0.04,-1.75
-9.54,0.05,-1.81
-9.51,0.03,-1.96
-9.71,0.11,-1.77
-9.58,0.06,-1.68
-9.67,0.21,-1.66
-9.79,-0.01,-1.65
-9.62,0.14,-1.48
-9.66,0.19,-1.82
-9.62,0.04,-1.61
-9.78,0.30,-1.62
-9.63,0.10,-1.69
-9.56,0.17,-1.80
-9.54,0.09,-1.77
-9.64,0.15,-1.74
-9.65,0.24,-1.73
-9.66,0.15,-1.71
-9.57,0.28,-1.67
-9.53,0.21,-1.71
-9.51,0.15,-1.87
-9.60,0.15,-1.72
-9.68,0.20,-1.59
-9.63,0.22,-1.64
-9.64,0.26,-1.57
-9.59,0.17,-1.69
-9.49,0.22,-1.54
-9.58,-0.01,-1.65
-9.57,0.04,-1.71
-9.62,0.07,-1.68
-9.65,0.11,-1.75
-9.74,0.09,-1.75
-9.52,0.15,-1.62
-9.68,0.16,-1.60
-9.57,0.00,-1.72
-9.63,0.05,-1.65
-9.59,0.08,-1.70
-9.70,0.19,-1.70
-9.65,0.31,-1.53
-9.68,0.16,-1.64
-9.88,0.24,-1.70
-9.50,0.27,-1.61
-9.54,-0.19,-1.50
-10.01,-0.23,-1.42
-9.39,0.16,-1.32
-9.49,0.21,-1.69
-9.66,0.15,-1.27
-9.38,0.18,-1.43
-10.01,0.18,-1.61
-9.48,0.30,-1.12
-9.52,-0.36,-1.20
-9.47,0.50,-1.06
-9.55,0.26,-0.92
-9.78,1.25,-0.76
-9.58,0.45,-0.59
-9.62,0.30,-0.99
-9.33,0.22,-0.71
-10.09,0.23,-0.77
-9.94,0.46,-1.15
-9.45,0.61,-1.36
-9.29,0.52,-0.93
-9.78,0.26,-0.74
-9.60,0.11,-0.93
-9.49,-0.24,-0.87
-9.64,-0.19,-1.05
-9.48,-0.20,-1.40
-9.73,0.29,-1.04
-9.43,0.00,-1.14
-9.70,-0.08,-0.94
-9.53,0.30,-1.21
-9.60,0.08,-1.32
-9.87,0.18,-1.20
-9.57,-0.13,-1.02
-9.62,-0.03,-1.26
-9.73,0.07,-1.22
-9.78,0.08,-1.01
-9.80,0.16,-1.20
-9.60,0.32,-1.13
-8.95,0.46,-1.25
-9.93,0.15,-1.25
-9.67,0.01,-1.26
-9.52,0.29,-1.17
-9.52,0.15,-1.30
-9.80,0.21,-1.54
-9.64,0.13,-1.15
-9.66,0.15,-1.31
-9.70,0.17,-1.02
-9.71,0.10,-1.25
-9.66,0.08,-1.10
-9.69,0.27,-1.16
-9.73,-0.01,-1.17
-9.77,0.18,-1.04
-9.62,0.22,-1.34
-9.78,-0.01,-0.99
-9.58,0.09,-1.14
-9.60,0.02,-1.19
-9.71,-0.02,-1.14
-9.58,0.07,-1.15
-9.64,0.19,-1.12
-9.65,0.19,-1.06
-9.57,0.02,-1.04
-9.65,0.09,-1.12
-9.61,0.13,-1.15
-9.55,0.04,-1.23
-9.61,0.09,-1.17
-9.65,0.22,-1.10
-9.60,0.03,-1.07
-9.64,-0.02,-1.05
-9.64,0.14,-1.10
-9.56,0.04,-0.99
-9.64,0.07,-1.04
-9.60,0.11,-0.98
-9.57,-0.04,-1.13
-9.66,0.08,-1.03
-9.76,0.05,-0.91
-9.61,0.11,-0.95
-9.63,0.12,-1.06
-9.64,0.10,-0.96
-9.61,0.03,-1.02
-9.70,0.11,-1.04
-9.65,0.11,-1.09
-9.68,0.02,-1.00
-9.73,-0.00,-0.95
-9.62,0.15,-0.97
-9.66,0.13,-0.94
-9.66,0.15,-0.91
-9.58,0.09,-1.02
-9.72,0.06,-0.95
-9.70,0.17,-0.98
-9.69,0.10,-0.87
-9.64,0.19,-0.80
-9.65,0.03,-0.90
-9.63,0.08,-0.75
-9.62,0.11,-1.02
-9.62,0.06,-1.09
-9.71,0.22,-0.87
-9.61,0.11,-1.02
-9.65,0.14,-0.95
-9.70,-0.04,-0.98
-9.65,0.08,-1.04
-9.71,0.10,-0.90
-9.72,0.10,-0.93
-9.61,0.11,-0.86
-9.62,0.16,-0.91
-9.59,0.10,-0.90
-9.62,0.00,-1.00
-9.73,0.15,-0.97
-9.58,0.00,-0.87
-9.55,0.21,-0.91
-9.70,-0.01,-1.06
-9.66,0.03,-1.14
-9.62,-0.06,-1.13
-9.62,0.29,-0.94
-9.75,-0.06,-0.92
-9.73,0.19,-0.97
-9.67,0.05,-1.12
-9.73,0.03,-1.03
-9.67,-0.01,-1.03
-9.61,0.05,-1.01
-9.58,0.11,-1.02
-9.67,0.10,-0.97
-9.62,0.11,-0.93
-9.52,-0.00,-1.12
-9.58,0.10,-0.98
-9.74,0.04,-1.03
-9.69,0.04,-1.00
-9.60,0.16,-1.02
-9.64,0.19,-1.00
-9.66,0.07,-0.94
-9.70,0.10,-0.73
-9.64,0.27,-1.01
-9.59,0.15,-1.04
-9.73,0.28,-0.95
-9.73,0.26,-0.93
-9.72,0.34,-1.02
-9.63,0.17,-1.12
-9.61,0.16,-1.04
-9.55,0.25,-1.17
-9.54,0.22,-1.04
-9.71,0.28,-1.14
-9.56,0.20,-1.32
-9.56,0.11,-1.24
-9.80,0.05,-1.30
-9.65,0.12,-1.18
-9.66,0.08,-1.18
-9.64,0.03,-1.21
-9.50,0.23,-1.25
-9.67,0.14,-1.47
-9.60,0.08,-1.38
-9.66,0.11,-1.29
-9.77,-0.02,-1.29
-9.58,0.23,-1.31
-9.69,-0.03,-1.23
-9.65,0.28,-1.25
-9.56,0.21,-1.25
-9.77,0.11,-1.20
-9.63,0.23,-1.19
-9.60,0.15,-1.16
-9.71,0.16,-1.21
-9.65,0.15,-1.03
-9.68,0.06,-1.26
-9.66,0.10,-1.08
-9.65,0.25,-1.31
-9.64,0.11,-1.20
-9.58,0.22,-1.25
-9.73,0.13,-1.15
-9.53,0.35,-1.22
-9.61,0.11,-1.23
-9.66,0.20,-1.02
-9.68,0.23,-1.22
-9.52,0.31,-1.21
-9.73,0.05,-1.12
-9.57,0.21,-1.13
-9.53,0.11,-1.28
-9.62,0.27,-1.20
-9.69,0.11,-1.00
-9.63,0.21,-1.19
-9.66,0.17,-1.03
-9.58,0.25,-1.05
-9.62,0.17,-1.08
-9.66,0.21,-1.11
-9.66,0.18,-1.00
-9.55,0.07,-1.09
-9.49,0.19,-1.09
-9.64,0.07,-0.96
-9.38,0.00,-1.04
-9.51,0.22,-0.95
-9.63,0.45,-0.87
-9.80,0.28,-0.65
-9.66,0.35,-0.95
-9.66,0.28,-0.74
-9.56,0.26,-0.76
-9.53,0.57,-0.57
-9.63,0.47,-0.84
-9.79,0.24,-0.71
-9.55,0.55,-0.75
-9.45,0.13,-0.78
-9.80,0.37,-0.75
-9.54,0.89,-0.65
-9.70,0.49,-0.87
-9.89,0.34,-1.05
-9.57,0.18,-0.74
-9.59,-0.16,-1.02
-9.48,0.48,-0.81
-9.67,0.39,-0.75
-9.68,-0.06,-0.85
-9.50,0.01,-0.91
-9.82,-0.20,-0.53
-9.61,0.28,-0.67
-9.66,-0.03,-0.77
-9.86,-0.61,-0.62
-9.59,-0.68,-0.61
-9.65,0.15,-0.67
-9.73,-0.48,-0.57
-9.75,-0.30,-0.45
-9.65,-0.59,-0.60
-9.58,-0.31,-0.47
-9.44,-1.69,-1.05
-9.31,-1.34,-1.36
-9.19,-2.14,-1.60
-8.99,-2.64,-2.05
-8.89,-2.84,-2.68
-9.04,-2.63,-2.92
-8.87,-3.02,-3.06
-8.90,-3.53,-3.11
-8.67,-2.98,-3.66
-8.74,-3.53,-3.61
-7.97,-3.81,-4.01
-7.59,-3.95,-4.31
-8.23,-3.41,-3.90
-8.19,-3.26,-4.06
-8.07,-3.53,-4.18
-8.28,-4.06,-4.58
-8.00,-3.86,-4.45
-8.04,-3.92,-4.69
-7.77,-3.74,-4.93
-7.80,-4.61,-4.81
-7.65,-4.48,-5.60
-6.97,-5.52,-5.74
-5.82,-6.42,-5.96
-4.70,-7.24,-6.35
-3.60,-7.40,-5.88
-1.74,-7.74,-5.55
-0.64,-8.51,-5.01
0.85,-8.39,-3.76
1.57,-8.20,-3.13
2.01,-8.61,-2.92
1.50,-9.74,-2.64
1.65,-9.74,-2.87
1.30,-9.50,-3.23
1.27,-9.06,-3.06
1.33,-9.64,-3.39
1.30,-9.09,-3.47
1.83,-9.35,-3.48
1.00,-8.15,-3.62
2.27,-8.48,-4.22
-0.60,-8.83,-3.47
2.16,-8.51,-5.39
1.38,-9.03,-6.09
1.76,-9.65,-6.11
1.08,-7.04,-5.72
2.03,-8.19,-5.59
2.05,-8.61,-6.47
2.18,-6.51,-5.75
3.02,-7.01,-7.23
2.33,-8.01,-7.37
2.33,-7.24,-7.34
2.49,-7.24,-7.08
2.65,-6.74,-6.55
2.98,-7.13,-7.32
3.21,-6.71,-6.96
3.30,-6.46,-6.57
3.23,-7.19,-7.14
3.15,-7.14,-7.14
3.28,-6.57,-7.05
3.08,-7.09,-7.00
3.18,-6.68,-7.03
3.25,-6.73,-7.29
3.23,-6.83,-7.05
3.21,-6.79,-7.17
3.06,-6.77,-6.96
3.17,-6.68,-7.08
3.08,-6.81,-7.04
2.98,-6.73,-7.14
3.01,-6.80,-7.12
3.11,-6.77,-7.07
3.00,-6.90,-7.08
2.98,-6.70,-7.16
2.69,-7.10,-5.35
0.12,-4.95,-5.59
-0.34,-7.23,-9.27
-1.15,-7.56,-9.64
-2.17,-6.66,-9.00
-2.56,-6.47,-8.00
-2.40,-6.52,-7.25
-2.24,-6.82,-7.40
-2.15,-6.57,-7.53
-2.03,-6.73,-7.22
-1.97,-7.17,-7.32
-2.03,-7.09,-7.02
-1.92,-7.26,-6.67
-2.25,-7.29,-5.90
-1.74,-8.01,-6.01
-2.05,-8.12,-4.85
-2.24,-8.46,-4.22
-2.46,-8.49,-3.10
-3.09,-8.54,-1.99
-3.47,-8.99,-1.10
-3.85,-8.75,0.11
-4.87,-7.88,0.98
-5.40,-7.39,1.29
-13.18,14.81,-11.62
-7.32,-5.15,2.36
-8.21,-4.53,2.11
-8.53,-3.92,0.97
-8.52,-2.67,0.67
-10.43,-1.90,0.68
-9.30,-1.94,0.36
-9.52,-1.19,0.00
-9.41,-1.30,0.19
-9.49,-1.24,0.13
-9.52,-1.06,0.11
-9.45,-1.24,0.19
-9.34,-1.01,0.28
-9.39,-1.36,0.02
-9.42,-0.99,0.15
-9.37,-1.14,0.15
-9.47,-1.19,0.17
-9.50,-1.27,0.09
-9.50,-1.22,0.15
-9.41,-1.31,0.11
-9.45,-1.47,0.14
-9.47,-1.13,0.24
-9.49,-1.18,0.14
-9.45,-1.12,0.17
-9.44,-1.27,0.17
-9.51,-1.25,0.10
-9.50,-1.21,0.18
-9.40,-1.23,0.18
-9.49,-1.25,0.10
-9.58,-1.31,0.10
-9.14,-1.62,0.10
-9.38,-1.74,0.33
-9.54,-2.19,-0.07
-9.22,-2.06,-0.51
-9.37,-2.51,-0.86
-9.25,-2.38,-1.15
-9.25,-2.60,-1.51
-9.13,-2.60,-2.36
-8.98,-2.95,-2.34
-8.94,-2.47,-2.45
-9.96,-2.44,-2.99
-9.68,-1.51,-2.31
-8.30,-2.60,-2.64
-9.98,-3.74,-3.39
-8.39,-3.02,-2.39
-8.97,-3.17,-2.53
-8.77,-3.69,-2.89
-8.74,-3.65,-2.81
-8.67,-3.48,-3.00
-8.56,-4.05,-3.22
-8.42,-3.98,-3.43
-7.50,-5.07,-3.99
-7.57,-4.71,-4.51
-6.90,-5.85,-4.99
-6.30,-6.41,-5.05
-5.37,-6.88,-5.37
-4.03,-7.25,-5.33
-2.99,-8.33,-5.26
-1.70,-8.44,-5.00
0.05,-8.33,-4.12
1.29,-8.56,-3.57
2.57,-9.08,-3.16
3.00,-8.09,-3.01
2.98,-8.70,-2.12
3.46,-8.79,-2.31
3.14,-8.25,-2.40
2.76,-9.32,-2.33
2.49,-9.60,-2.19
2.85,-10.47,-1.81
2.67,-9.91,-2.28
3.43,-9.00,-2.45
3.55,-9.04,-2.58
3.21,-7.97,-3.48
3.17,-8.17,-3.87
1.52,-9.20,-3.91
3.07,-8.68,-5.56
0.81,-8.42,-5.49
2.04,-8.87,-7.13
2.14,-7.93,-6.56
1.69,-6.66,-5.77
2.12,-7.79,-6.21
1.56,-8.30,-6.31
1.84,-8.21,-6.68
1.79,-7.82,-5.73
2.08,-7.87,-5.77
1.91,-8.06,-6.20
1.86,-7.78,-5.88
1.94,-8.02,-6.22
2.15,-7.73,-6.15
1.99,-8.01,-6.02
1.98,-7.67,-6.08
1.94,-8.10,-5.94
1.95,-8.00,-6.03
1.87,-7.81,-5.85
1.97,-7.91,-5.84
1.37,-7.84,-5.30
-0.72,-8.08,-2.04
-1.45,-7.16,-7.14
-2.01,-8.29,-7.11
-2.16,-8.68,-6.35
-2.70,-8.49,-4.96
-2.42,-7.99,-4.78
-2.46,-8.02,-5.10
-2.35,-8.23,-5.09
-2.37,-8.26,-5.27
-2.41,-8.41,-5.55
-1.83,-8.37,-5.36
-1.85,-7.97,-4.93
-1.89,-8.50,-5.16
-1.62,-8.38,-5.36
-1.22,-8.62,-5.40
-1.04,-8.48,-5.06
-1.28,-8.35,-4.61
-1.22,-8.53,-4.24
-1.37,-9.17,-3.69
-1.62,-9.85,-3.15
-1.43,-9.57,-2.05
-2.10,-7.93,-0.74
-3.66,-8.00,0.19
-3.78,-8.83,0.59
-5.06,-7.55,1.59
-6.77,-6.23,2.15
-8.26,-6.24,1.67
-7.67,-4.62,1.63
-8.63,-3.33,1.59
-9.59,-1.74,0.39
-9.28,-1.95,1.10
-9.38,-1.86,0.53
-9.25,-1.86,0.72
-9.29,-1.70,0.09
-9.49,-1.73,0.12
-9.49,-1.79,0.16
-9.23,-1.28,0.06
-9.71,-1.08,0.11
-9.42,0.70,-0.38
-10.00,-0.71,-0.89
-9.69,-0.06,-0.94
-9.94,1.83,-1.22
-9.51,-0.46,-1.11
-9.73,-0.68,-0.95
-9.50,1.12,-1.58
-9.73,-0.38,-1.12
-9.47,-0.20,-1.31
-9.87,-0.07,-1.46
-9.57,-0.17,-1.46
-9.68,0.19,-1.56
-9.57,-0.12,-1.13
-9.65,0.27,-1.23
-9.61,-0.10,-1.01
-9.69,0.17,-1.23
-9.52,-0.04,-1.24
-9.68,-0.20,-1.29
-9.71,-0.20,-1.32
-9.65,-0.14,-1.21
-9.65,-0.18,-1.33
-9.60,-0.19,-1.01
-9.71,-0.15,-1.14
-9.64,-0.13,-1.10
-9.63,-0.26,-1.19
-9.57,-0.12,-1.17
-9.63,-0.26,-1.08
-9.68,-0.23,-1.21
-9.64,-0.32,-1.24
-9.67,0.08,-0.76
-9.79,-0.06,-1.34
-9.67,-0.23,-1.00
-9.60,-0.34,-1.03
-9.63,-0.04,-0.97
-9.55,0.15,-0.95
-9.63,-0.13,-0.92
-9.65,0.06,-0.98
-9.62,-0.18,-1.01
-9.61,-0.06,-1.01
-9.66,-0.43,-0.96
-9.60,-0.09,-1.21
-9.43,-0.53,-1.26
-9.50,-0.74,-1.18
-9.39,-0.95,-1.16
-9.48,-1.59,-1.59
-9.11,-2.71,-2.00
-8.91,-3.38,-2.49
-8.17,-4.02,-3.74
-7.77,-4.61,-4.42
-7.11,-4.75,-5.13
-6.44,-5.08,-6.08
-5.62,-5.54,-6.49
-4.91,-5.44,-7.17
-4.06,-5.77,-7.28
-3.25,-5.22,-7.93
-2.47,-5.25,-8.28
-2.00,-5.34,-8.38
-1.79,-5.34,-8.24
-1.77,-5.39,-8.75
-1.60,-5.08,-9.27
-1.59,-5.21,-9.22
-1.64,-5.09,-9.11
-1.41,-4.90,-9.09
-1.00,-5.10,-8.94
-0.98,-5.53,-8.78
-0.84,-5.00,-8.99
-0.62,-5.18,-8.99
-0.05,-5.56,-8.75
-0.31,-5.63,-8.61
-0.32,-5.86,-8.95
-0.36,-5.91,-8.54
-0.60,-6.16,-8.68
-0.30,-6.23,-8.30
-0.52,-6.07,-8.31
-0.65,-6.01,-8.30
-0.30,-6.37,-8.45
-0.73,-7.19,-7.68
-0.67,-6.65,-8.00
-0.66,-7.48,-7.25
-0.67,-7.74,-6.64
-0.73,-8.02,-6.25
-0.79,-8.19,-5.71
-0.88,-7.98,-5.63
-0.32,-8.25,-5.95
-0.18,-8.48,-5.80
-0.05,-8.09,-6.11
-0.25,-8.02,-5.90
-0.22,-8.95,-5.75
-0.45,-8.59,-5.35
0.04,-9.06,-5.63
1.13,-8.29,-4.99
1.12,-8.33,-4.22
1.30,-8.83,-4.00
1.99,-8.97,-4.27
1.80,-8.19,-4.12
1.61,-9.05,-4.22
1.63,-8.79,-4.01
1.48,-8.63,-4.18
1.27,-9.28,-4.03
1.52,-8.94,-3.99
1.50,-8.73,-3.95
1.66,-9.33,-3.71
1.00,-8.28,-4.01
0.42,-8.49,-5.05
2.82,-8.76,-6.12
1.59,-8.90,-5.76
1.63,-8.10,-5.37
1.14,-8.86,-5.64
1.01,-7.80,-5.87
1.43,-7.92,-6.59
1.06,-7.75,-6.33
0.78,-8.65,-5.67
1.11,-8.12,-5.45
1.22,-8.51,-5.73
1.06,-8.26,-5.48
0.99,-8.51,-5.47
0.99,-8.39,-5.64
0.99,-8.25,-5.52
1.15,-8.41,-5.52
0.82,-7.90,-5.23
0.87,-8.52,-5.83
0.68,-8.03,-5.43
0.53,-8.07,-5.07
0.46,-8.46,-6.01
0.13,-8.14,-6.19
-0.18,-7.92,-6.11
-0.33,-8.41,-5.85
-0.03,-8.00,-6.55
-0.40,-8.22,-5.78
-0.57,-8.32,-5.68
-0.51,-8.16,-6.14
-0.34,-8.32,-6.13
-0.41,-8.14,-6.05
-0.29,-7.79,-6.14
-0.61,-6.71,-6.45
-1.33,-5.93,-7.19
-1.25,-7.94,-8.28
-1.76,-6.98,-7.02
-1.77,-4.88,-8.02
-1.99,-5.68,-7.82
-2.35,-5.97,-7.70
-3.16,-6.39,-7.60
-3.93,-5.75,-6.88
-4.33,-5.71,-6.81
-5.69,-6.07,-6.62
-6.42,-5.41,-5.92
-6.22,-5.08,-5.93
-7.83,-4.07,-4.66
-7.82,-3.81,-4.66
-8.57,-3.51,-3.83
-8.52,-3.23,-3.35
-9.40,-3.18,-2.25
-9.43,-2.07,-1.79
-9.44,-1.27,-2.23
-9.51,-0.36,-1.66
-9.76,-0.66,-2.26
-9.59,-0.49,-2.32
-9.39,-0.22,-2.49
-9.46,-0.30,-2.02
-10.39,-1.58,-1.35
-9.31,-0.65,-1.73
-10.33,-0.37,-1.70
-9.62,0.37,-1.21
-9.66,0.12,-1.00
-9.73,-0.03,-1.30
-9.69,0.03,-1.11
-9.73,0.06,-1.36
-9.59,0.35,-1.50
-9.62,0.28,-1.46
-9.58,-0.01,-1.52
-9.61,0.11,-1.53
-9.69,0.18,-1.58
-9.64,0.19,-1.38
-9.62,0.07,-1.54
-9.55,0.45,-1.44
-9.39,0.21,-1.72
-9.42,0.36,-1.79
-9.67,0.23,-2.60
-9.48,0.39,-3.16
-9.40,-0.02,-3.40
-9.14,-0.14,-4.20
-8.56,-0.06,-4.86
-8.63,-0.60,-4.99
-8.60,-0.72,-5.76
-8.13,-0.33,-6.32
-7.60,-0.56,-7.54
-6.68,-1.00,-7.55
-5.72,-1.41,-8.42
-5.44,-2.00,-8.58
-4.54,-2.24,-9.60
-3.99,-2.36,-9.69
-3.26,-2.44,-10.03
-2.83,-2.75,-9.66
-2.47,-2.92,-9.60
-2.48,-2.60,-9.14
-2.00,-2.95,-9.80
-1.83,-3.11,-9.99
-1.88,-2.91,-10.15
-1.83,-3.21,-10.16
-1.93,-3.14,-9.88
-2.28,-3.63,-9.81
-2.13,-3.48,-9.83
-2.06,-4.36,-9.42
-1.73,-4.24,-9.46
-1.77,-4.79,-9.33
-1.70,-5.41,-8.83
-1.49,-5.56,-8.83
-1.56,-5.12,-8.72
-1.47,-5.82,-8.46
-1.42,-6.04,-8.62
-1.22,-6.26,-8.59
-1.30,-5.88,-8.27
-1.33,-6.25,-8.18
-1.35,-6.34,-8.06
-1.07,-6.78,-7.95
-1.25,-7.24,-7.63
-1.05,-7.29,-7.24
-0.93,-7.47,-7.05
-0.73,-7.20,-7.19
-1.00,-7.04,-7.07
-0.79,-7.20,-7.27
-0.86,-7.36,-7.18
-0.62,-7.26,-7.22
-0.83,-7.27,-7.02
-0.63,-7.44,-6.90
-0.71,-7.67,-6.57
-0.35,-8.19,-6.34
-0.83,-8.36,-5.56
-0.52,-8.76,-5.66
-0.11,-8.33,-5.72
-0.12,-8.21,-5.74
0.18,-8.42,-5.54
0.17,-8.54,-5.33
0.29,-8.49,-5.61
0.60,-8.18,-5.86
0.42,-8.33,-6.01
0.20,-8.15,-5.44
-0.18,-8.35,-5.32
0.06,-9.05,-5.23
0.10,-8.64,-5.06
0.57,-8.71,-4.87
0.41,-9.31,-4.65
0.24,-8.63,-3.64
-0.08,-9.29,-4.37
-0.06,-8.65,-4.63
0.25,-8.76,-4.60
0.57,-8.82,-4.36
0.65,-8.41,-4.40
0.87,-9.12,-4.64
0.91,-9.10,-4.30
0.37,-8.82,-4.64
0.83,-9.20,-4.66
0.23,-8.72,-4.42
1.32,-8.60,-4.06
0.83,-7.99,-4.88
0.06,-7.38,-6.04
1.44,-8.71,-6.54
1.05,-6.54,-6.96
0.93,-7.55,-6.81
1.17,-7.53,-7.91
1.13,-6.91,-6.79
1.28,-7.29,-6.25
1.46,-8.01,-7.27
1.25,-7.03,-6.77
1.31,-7.60,-6.89
1.28,-7.28,-6.84
1.30,-7.72,-6.96
1.32,-7.34,-6.76
1.34,-7.57,-6.73
1.17,-7.52,-6.81
1.31,-7.42,-6.94
1.14,-7.56,-6.76
1.39,-7.75,-7.12
1.18,-7.60,-6.78
1.21,-7.36,-6.85
1.24,-7.63,-6.79
1.22,-7.38,-6.91
1.09,-7.76,-6.82
1.15,-7.42,-6.83
1.11,-7.42,-6.96
1.10,-7.38,-6.83
0.42,-7.17,-5.95
-0.17,-7.37,-7.13
-0.91,-6.20,-7.38
-1.52,-6.74,-9.51
-1.71,-6.44,-8.78
-2.29,-6.29,-7.38
-1.94,-6.83,-7.84
-1.80,-6.44,-7.93
-1.78,-6.76,-7.94
-1.52,-6.89,-7.46
-1.63,-7.04,-6.66
-1.37,-7.40,-6.09
-1.61,-7.43,-5.76
-1.95,-8.04,-6.26
-2.35,-7.75,-5.99
-2.72,-7.34,-5.73
-3.49,-7.56,-5.67
-3.68,-7.14,-5.94
-4.77,-6.37,-5.56
-5.45,-6.51,-5.55
-6.03,-5.54,-5.23
-6.43,-5.55,-5.41
-7.56,-4.70,-4.98
-7.66,-4.29,-4.52
-8.22,-3.76,-3.56
-9.06,-2.94,-3.00
-9.28,-2.12,-2.49
-9.26,-1.66,-1.82
-9.62,-1.99,-1.36
-9.31,-1.24,-1.43
-9.70,-0.68,-0.95
-9.50,-0.56,-0.62
-9.57,-0.97,-0.79
-9.64,-0.71,-0.87
-9.54,-1.00,-0.92
-9.55,-0.85,-0.79
-9.62,-0.88,-0.68
-9.43,-1.31,-0.87
-9.48,-1.37,-0.47
-9.61,-2.00,-0.61
-9.10,-1.39,-0.81
-9.10,-3.03,-0.93
-9.93,-1.71,-1.55
-9.15,-2.47,-2.38
-9.37,-2.10,-2.01
-9.31,-2.62,-2.08
-8.90,-3.14,-2.12
-8.41,-3.55,-3.14
-7.83,-3.73,-3.02
-8.63,-3.51,-3.22
-8.69,-3.29,-3.52
-8.42,-3.58,-4.15
-8.70,-3.46,-3.77
-8.19,-3.68,-3.91
-8.55,-3.60,-3.85
-8.24,-3.50,-3.71
-8.62,-3.43,-3.88
-8.23,-3.65,-4.18
-8.38,-3.29,-3.87
-8.28,-3.40,-3.89
-8.52,-3.67,-3.99
-8.36,-3.53,-4.05
-8.32,-4.32,-4.39
-8.00,-4.02,-4.58
-7.61,-4.98,-4.89
-6.83,-5.24,-5.35
-6.20,-5.64,-6.04
-5.38,-6.20,-6.71
-4.14,-7.21,-6.40
-2.76,-7.05,-5.80
-0.91,-8.55,-5.46
0.00,-8.48,-4.30
0.95,-9.77,-3.31
2.10,-9.22,-3.94
2.25,-8.67,-3.75
1.75,-9.29,-3.79
1.15,-10.16,-3.39
1.53,-9.27,-3.97
1.43,-9.47,-3.34
1.48,-8.96,-3.58
1.44,-8.30,-4.20
0.31,-7.47,-3.53
0.23,-8.09,-5.03
1.30,-9.27,-7.04
0.09,-8.72,-6.21
2.67,-7.64,-5.93
3.44,-7.01,-5.87
3.66,-8.25,-6.54
3.65,-7.42,-6.61
3.84,-6.67,-6.30
4.00,-7.66,-6.45
4.00,-7.59,-6.29
3.99,-6.96,-6.32
4.00,-7.12,-6.14
4.04,-7.24,-6.12
4.05,-7.10,-6.23
4.01,-7.27,-6.17
3.99,-7.23,-6.00
4.03,-7.06,-6.23
3.97,-7.14,-6.18
3.77,-7.02,-6.35
3.96,-7.23,-6.09
3.81,-7.18,-6.13
3.75,-7.17,-5.95
3.88,-7.45,-6.31
3.91,-6.77,-5.75
4.12,-7.25,-6.17
3.90,-7.53,-5.96
3.99,-6.63,-5.82
4.05,-7.15,-6.00
4.10,-7.11,-6.07
3.94,-7.62,-5.80
4.02,-7.23,-5.89
3.95,-7.19,-5.80
3.53,-7.02,-5.29
3.76,-8.33,-5.29
2.43,-7.88,-7.62
0.95,-7.08,-6.96
1.42,-7.43,-8.06
1.11,-7.80,-6.76
0.66,-7.39,-6.42
0.64,-7.79,-6.64
0.56,-7.74,-6.49
0.59,-8.00,-6.62
0.41,-7.29,-6.07
0.51,-7.88,-6.31
-0.10,-8.37,-5.98
-0.97,-9.09,-4.28
-0.59,-9.77,-3.97
-2.42,-8.26,-2.29
-2.64,-8.99,-1.25
-3.79,-8.82,-0.54
-5.68,-7.16,0.60
-6.32,-7.10,1.51
-6.71,-5.77,1.67
-8.51,-4.33,1.52
-9.11,-3.59,1.36
-8.68,-2.44,1.35
-10.38,-0.39,0.70
-9.57,-0.18,-0.24
-9.64,0.60,-0.94
-9.57,0.21,-0.59
-9.46,0.64,-0.98
-9.33,0.43,-2.04
-9.59,-0.28,-1.20
-9.94,-0.16,-0.06
-9.65,0.93,-1.09
-9.95,0.53,-0.80
-9.44,0.91,-1.66
-9.36,0.20,-1.36
-9.69,0.96,-1.87
-9.55,0.60,-0.90
-9.63,0.80,-0.90
-9.35,0.57,-1.27
-9.83,0.30,-0.96
-9.66,0.72,-1.09
-9.41,0.68,-0.92
-9.73,0.57,-1.38
-9.56,1.17,-1.33
-9.37,0.50,-1.19
-9.58,0.58,-1.36
-9.73,0.60,-1.19
-9.65,0.57,-1.40
-9.57,0.73,-1.49
-9.69,0.64,-1.46
-9.76,0.62,-1.41
-9.62,0.49,-1.45
-9.74,0.61,-1.50
-9.46,0.40,-1.34
-9.52,0.59,-1.25
-9.50,0.48,-1.54
-9.59,0.55,-1.33
-9.61,0.58,-1.36
-9.69,0.82,-1.23
-9.59,0.57,-1.25
-9.64,0.61,-1.31
-9.80,0.61,-1.34
-9.65,0.64,-1.58
-9.74,0.28,-1.44
-9.54,0.43,-1.39
-9.66,0.45,-1.39
-9.86,0.48,-1.50
-9.84,0.46,-1.46
-9.58,0.45,-1.60
-9.77,0.06,-1.49
-9.54,0.38,-1.63
-9.81,-0.14,-1.83
-9.48,-0.28,-1.89
-9.68,0.09,-1.52
-9.68,-0.35,-1.68
-9.58,-0.35,-1.04
-9.38,0.18,-1.23
-9.55,-0.57,-1.56
-9.46,-0.30,-1.40
-9.43,0.08,-1.51
-9.59,0.41,-1.60
-9.95,0.62,-1.44
-9.67,0.48,-1.39
-9.64,0.55,-1.36
-10.14,0.54,-1.14
-9.46,0.27,-1.09
-9.79,0.14,-1.31
-9.59,0.40,-1.00
-9.48,0.42,-1.09
-9.57,0.31,-1.37
-9.84,0.07,-1.60
-9.44,0.39,-1.75
-9.47,0.45,-1.67
-9.80,0.66,-1.37
-9.64,0.85,-1.48
-9.64,0.79,-1.48
-9.60,0.67,-1.52
-9.85,0.23,-1.44
-9.66,0.63,-1.50
-9.58,0.79,-1.44
-9.62,0.74,-1.49
-9.64,0.77,-1.48
-9.59,0.87,-1.38
-9.60,0.62,-1.53
-9.72,0.66,-1.51
-9.67,0.62,-1.57
-9.64,0.68,-1.59
-9.56,0.55,-1.54
-9.55,0.58,-1.45
-9.71,0.53,-1.50
-9.54,0.62,-1.44
-9.57,0.59,-1.42
-9.62,0.47,-1.44
-9.66,0.64,-1.41
-9.60,0.68,-1.25
-9.60,0.90,-1.49
-9.62,0.73,-1.46
-9.70,0.72,-1.36
-9.65,0.56,-1.47
-9.68,0.64,-1.67
-9.85,0.50,-1.19
-9.80,0.61,-1.55
-9.37,0.73,-1.46
-9.60,1.02,-1.40
-9.68,0.60,-1.17
-9.60,0.75,-1.38
-9.54,0.72,-1.46
-9.58,0.57,-1.07
-9.95,0.18,-0.57
-9.67,1.97,-1.65
-9.71,0.18,-1.10
-9.71,-0.04,-0.69
-9.52,0.59,-1.41
-9.55,0.44,-1.25
-9.66,0.34,-0.75
-9.62,1.18,-1.13
-9.71,0.62,-0.96
-9.57,0.57,-1.18
-9.75,0.80,-1.39
-9.75,0.88,-1.04
-9.67,0.73,-1.19
-9.63,0.82,-1.13
-9.67,0.73,-1.09
-9.58,0.74,-1.23
-9.73,0.75,-1.08
-9.54,0.80,-1.07
-9.58,0.71,-1.29
-9.56,0.80,-1.02
-9.69,0.79,-1.02
-9.61,0.68,-1.05
-9.65,0.91,-1.02
-9.66,0.68,-1.10
-9.58,0.51,-1.20
-9.47,0.56,-1.12
-9.62,0.63,-0.81
-9.66,0.79,-1.08
-9.70,0.89,-1.14
-9.61,0.77,-1.24
-9.63,0.68,-0.85
-9.58,0.62,-1.03
-9.71,0.67,-1.09
-9.70,0.60,-1.19
-9.58,0.78,-0.94
-9.66,0.66,-1.11
-9.65,1.06,-1.04
-9.53,0.90,-1.01
-9.73,0.61,-1.09
-9.59,0.75,-0.97
-9.69,0.80,-0.99
-9.56,0.77,-0.93
-9.63,0.72,-1.08
-9.66,0.86,-0.97
-9.65,0.84,-0.97
-9.63,0.94,-0.98
-9.63,0.72,-0.96
-9.66,0.89,-0.92
-9.63,0.84,-0.97
-9.81,0.79,-0.94
-9.69,0.72,-0.92
-9.66,0.91,-1.01
-9.57,0.64,-0.95
-9.73,0.78,-0.78
-9.62,0.79,-1.01
-9.59,0.79,-1.02
-9.65,0.60,-1.02
-9.64,0.77,-0.96
-9.66,0.77,-1.03
-9.62,0.59,-1.08
-9.64,0.59,-0.99
-9.57,0.52,-1.05
-9.55,0.39,-1.44
-9.50,0.58,-2.36
-9.57,-0.96,-3.75
-9.28,-1.73,-4.52
-8.59,-1.09,-6.37
-7.19,-2.13,-7.11
-6.22,-1.86,-8.82
-4.42,-1.72,-10.11
-3.20,-2.70,-10.02
-0.76,-3.26,-9.72
1.10,-4.70,-9.05
1.65,-5.33,-8.62
1.82,-6.18,-6.98
2.22,-8.15,-5.43
2.38,-8.93,-4.38
2.56,-9.67,-3.44
2.45,-9.07,-0.98
2.83,-8.15,1.67
3.40,-9.06,2.23
3.88,-7.77,0.57
4.74,-8.79,-0.89
5.43,-6.34,-1.49
5.07,-6.40,-3.02
3.80,-6.95,-5.50
2.65,-5.63,-8.46
0.07,-4.79,-10.13
-1.01,-4.24,-11.53
-1.33,-3.03,-12.44
-1.83,-2.76,-12.01
-0.72,-2.74,-10.82
1.10,-3.36,-9.79
2.96,-4.70,-9.04
3.97,-4.76,-7.29
3.44,-6.55,-6.39
3.32,-8.46,-4.29
3.63,-9.26,-3.27
3.56,-9.08,-2.19
3.70,-8.73,-0.73
3.45,-8.69,-0.43
3.94,-9.24,-1.06
3.91,-8.20,-2.29
3.97,-7.61,-4.02
3.99,-7.47,-4.93
3.62,-5.42,-7.16
3.40,-5.39,-8.36
2.21,-4.98,-9.29
0.21,-3.56,-10.41
-2.47,-1.82,-9.74
-2.41,-2.50,-11.08
-4.77,-1.37,-9.00
-5.75,-2.09,-9.60
-6.11,-1.24,-10.34
-7.11,-1.56,-10.13
-4.62,-1.64,-10.22
-2.79,-0.65,-10.32
-0.76,-2.24,-10.16
1.07,-3.84,-9.84
3.44,-3.40,-8.78
3.81,-4.68,-7.08
3.83,-7.69,-5.39
3.94,-8.25,-4.51
3.73,-8.94,-2.86
3.06,-7.71,-0.54
1.81,-9.39,0.35
1.53,-10.16,1.03
1.84,-9.30,0.72
2.50,-9.06,0.11
3.47,-8.77,-1.22
3.93,-8.46,-2.38
3.79,-7.19,-4.27
3.67,-5.79,-6.30
2.53,-7.36,-8.43
1.46,-3.78,-9.48
-1.17,-3.48,-8.06
-2.54,-2.91,-8.87
-5.28,-1.59,-10.87
-5.83,-2.76,-9.35
-6.38,-2.43,-10.74
-6.38,-3.72,-9.93
-5.72,-2.32,-10.03
-3.07,-2.83,-10.41
-0.57,-2.26,-10.57
0.75,-3.36,-9.29
3.19,-4.20,-8.12
3.47,-5.54,-5.90
4.16,-7.13,-5.57
3.88,-9.48,-4.95
3.40,-9.74,-2.23
2.24,-8.49,1.26
2.41,-10.74,0.80
2.45,-9.15,0.51
2.76,-9.24,-0.44
3.71,-7.79,-1.72
3.99,-8.21,-3.66
3.77,-7.24,-4.87
3.35,-5.78,-6.41
3.19,-5.84,-8.33
1.77,-4.78,-8.92
-0.17,-5.82,-9.28
-1.17,-4.67,-10.58
-1.84,-5.12,-9.99
-2.57,-4.58,-7.42
-2.96,-5.22,-7.65
-4.03,-6.35,-7.73
-5.14,-5.92,-6.44
-6.87,-5.66,-5.03
-7.09,-6.29,-3.73
-8.28,-5.03,-2.49
-8.64,-2.73,-1.76
-9.13,-2.52,-0.96
-9.35,-2.36,-0.45
-9.53,-2.11,-0.34
-9.36,-0.94,-0.34
-9.44,-1.97,-0.34
-9.55,-1.12,-0.57
-9.14,-2.24,-1.06
-9.84,-0.76,-1.66
-9.69,-0.44,-1.67
-9.85,0.25,-1.94
-9.18,-0.59,-1.68
-9.32,0.53,-2.12
-9.74,0.81,-1.79
-9.26,0.17,-1.92
-9.22,0.68,-2.15
-10.82,-1.09,-1.22
-9.23,0.78,-2.35
-9.78,0.16,-2.21
-9.42,0.11,-1.59
-9.76,0.29,-1.88
-9.61,0.64,-1.76
-9.46,0.49,-1.89
-9.83,0.11,-1.73
-9.55,0.53,-2.01
-9.63,0.40,-1.74
-9.44,0.68,-2.08
-9.54,0.28,-1.83
-9.60,0.31,-2.03
-9.56,0.49,-2.01
-9.55,0.19,-1.89
-9.63,0.26,-1.92
-9.71,0.44,-1.67
-9.65,0.53,-1.70
-9.62,0.24,-1.74
-9.60,0.50,-1.75
-9.67,0.41,-1.72
-9.60,0.44,-1.85
-9.59,0.32,-1.77
-9.52,0.51,-1.67
-9.57,0.20,-1.80
-9.54,0.43,-1.70
-9.65,0.34,-1.67
-9.67,0.42,-1.61
-9.64,0.34,-1.68
-9.69,0.44,-1.56
-9.59,0.41,-1.81
-9.68,0.36,-1.54
-9.58,0.31,-1.58
-9.58,0.36,-1.58
-9.62,0.35,-1.53
-9.63,0.35,-1.72
-9.60,0.57,-1.55
-9.67,0.36,-1.64
-9.62,0.35,-1.69
-9.64,0.36,-1.78
-9.56,0.42,-1.66
-9.63,0.29,-1.83
-9.62,0.51,-1.71
-9.62,0.45,-1.77
-9.57,0.38,-1.80
-9.55,0.54,-1.73
-9.61,0.67,-1.71
-9.64,0.46,-1.76
-9.65,0.47,-1.73
-9.50,0.49,-1.73
-9.56,0.41,-1.82
-9.58,0.44,-1.81
-9.60,0.47,-1.75
-9.59,0.53,-1.84
-9.61,0.48,-1.76
-9.56,0.43,-1.76
-9.64,0.49,-1.73
-9.60,0.53,-1.70
-9.63,0.46,-1.74
-9.62,0.40,-1.76
-9.59,0.45,-1.71
-9.71,0.50,-1.65
-9.58,0.45,-1.77
-9.53,0.46,-1.66
-9.70,0.41,-1.67
-9.60,0.45,-1.81
-9.62,0.45,-1.78
