aX,aY,aZ 
-9.46,-0.87,-0.68
-9.57,-0.86,-0.65
-9.62,-0.76,-0.60
-9.65,-0.75,-0.63
-9.62,-0.71,-0.65
-9.57,-0.73,-0.45
-9.62,-0.86,-0.45
-9.38,-0.82,-0.44
-9.62,-0.79,-0.57
-9.53,-0.85,-0.57
-9.58,-0.86,-0.46
-9.48,-0.70,-0.39
-9.51,-0.79,-0.26
-9.46,-0.68,-0.41
-9.63,-0.77,-0.43
-9.54,-0.88,-0.47
-9.56,-0.81,-0.34
-9.61,-0.76,-0.41
-9.61,-0.60,-0.39
-9.60,-0.66,-0.27
-9.69,-0.79,-0.30
-9.56,-0.83,-0.45
-9.58,-0.68,-0.28
-9.58,-0.66,-0.19
-9.50,-0.57,-0.09
-9.56,-0.66,-0.13
-9.61,-0.72,-0.19
-9.70,-0.72,-0.12
-9.59,-0.66,0.00
-9.53,-0.44,-0.06
-9.57,-0.91,-0.03
-9.67,-0.64,-0.09
-9.41,-0.75,0.15
-9.50,-0.74,0.16
-9.55,-0.79,0.04
-9.58,-0.63,0.01
-9.92,-0.55,0.07
-9.61,-0.46,0.31
-9.51,-0.31,0.21
-9.56,-0.54,0.03
-9.39,-0.74,0.17
-9.41,-0.50,0.15
-9.70,-0.61,0.15
-9.46,-0.45,0.31
-9.49,-0.60,0.23
-9.52,-0.55,0.15
-9.48,-0.51,0.25
-9.53,-0.52,0.16
-9.50,-0.52,0.13
-9.57,-0.56,0.26
-9.55,-0.54,0.23
-9.60,-0.45,0.31
-9.47,-0.61,0.26
-9.56,-0.49,0.32
-9.52,-0.52,0.29
-9.49,-0.47,0.29
-9.56,-0.50,0.34
-9.49,-0.62,0.32
-9.63,-0.55,0.29
-9.54,-0.55,0.23
-9.52,-0.51,0.29
-9.57,-0.45,0.32
-9.53,-0.53,0.37
-9.52,-0.53,0.30
-9.58,-0.42,0.37
-9.63,-0.50,0.33
-9.63,-0.35,0.25
-9.55,-0.48,0.31
-9.57,-0.45,0.25
-9.51,-0.37,0.28
-9.54,-0.60,0.30
-9.52,-0.45,0.27
-9.54,-0.54,0.31
-9.56,-0.43,0.28
-9.56,-0.51,0.23
-9.55,-0.45,0.26
-9.54,-0.48,0.26
-9.51,-0.58,0.25
-9.56,-0.43,0.23
-9.51,-0.52,0.29
-9.59,-0.49,0.26
-9.50,-0.48,0.32
-9.56,-0.49,0.24
-9.50,-0.52,0.26
-9.51,-0.48,0.23
-9.52,-0.51,0.30
-9.54,-0.48,0.31
-9.49,-0.49,0.30
-9.51,-0.47,0.27
-9.56,-0.56,0.30
-9.51,-0.47,0.30
-9.59,-0.48,0.27
-9.52,-0.61,0.33
-9.53,-0.43,0.35
-9.52,-0.45,0.32
-9.52,-0.51,0.32
-9.47,-0.45,0.31
-9.53,-0.61,0.29
-9.54,-0.47,0.26
-9.54,-0.53,0.34
-9.54,-0.43,0.31
-9.52,-0.47,0.27
-9.56,-0.45,0.26
-9.59,-0.44,0.26
-9.50,-0.44,0.24
-9.62,-0.49,0.20
-9.55,-0.54,0.29
-9.57,-0.53,0.27
-9.54,-0.43,0.32
-9.56,-0.45,0.16
-9.60,-0.67,0.21
-9.60,-0.45,0.29
-9.54,-0.50,0.31
-9.55,-0.57,0.20
-9.54,-0.61,0.17
-9.61,-0.54,0.31
-9.49,-0.49,0.34
-9.60,-0.52,0.18
-9.49,-0.47,0.25
-9.55,-0.50,0.29
-9.51,-0.48,0.25
-9.57,-0.53,0.26
-9.56,-0.42,0.22
-9.48,-0.49,0.32
-9.58,-0.49,0.29
-9.53,-0.48,0.22
-9.52,-0.50,0.34
-9.61,-0.43,0.34
-9.53,-0.55,0.22
-9.54,-0.53,0.32
-9.61,-0.54,0.26
-9.46,-0.55,0.27
-9.56,-0.45,0.35
-9.58,-0.46,0.39
-9.55,-0.48,0.29
-9.56,-0.47,0.27
-9.52,-0.45,0.27
-9.55,-0.50,0.29
-9.56,-0.45,0.25
-9.58,-0.50,0.29
-9.60,-0.34,0.33
-9.47,-0.59,0.28
-9.55,-0.47,0.26
-9.54,-0.44,0.36
-9.51,-0.50,0.29
-9.57,-0.51,0.32
-9.57,-0.55,0.28
-9.52,-0.52,0.34
-9.55,-0.51,0.23
-9.61,-0.57,0.31
-9.58,-0.50,0.30
-9.56,-0.46,0.37
-9.55,-0.57,0.34
-9.51,-0.40,0.25
-9.51,-0.48,0.34
-9.55,-0.53,0.37
-9.63,-0.49,0.33
-9.57,-0.56,0.34
-9.53,-0.52,0.30
-9.47,-0.65,0.25
-9.51,-0.65,0.25
-9.54,-0.64,0.23
-9.59,-0.49,0.25
-9.54,-0.55,0.36
-9.50,-0.58,0.31
-9.54,-0.58,0.44
-9.51,-0.43,0.38
-9.52,-0.61,0.35
-9.55,-0.66,0.38
-9.45,-0.49,0.33
-9.52,-0.62,0.33
-9.51,-0.56,0.38
-9.47,-0.62,0.35
-9.59,-0.57,0.40
-9.52,-0.57,0.37
-9.49,-0.59,0.38
-9.56,-0.56,0.34
-9.59,-0.68,0.30
-9.57,-0.48,0.41
-9.51,-0.55,0.36
-9.54,-0.60,0.35
-9.48,-0.66,0.33
-9.48,-0.57,0.28
-9.51,-0.53,0.31
-9.55,-0.66,0.23
-9.53,-0.51,0.35
-9.51,-0.51,0.27
-9.59,-0.53,0.34
-9.57,-0.50,0.37
-9.52,-0.54,0.52
-9.53,-0.48,0.35
-9.49,-0.50,0.38
-9.52,-0.59,0.33
-9.51,-0.56,0.36
-9.57,-0.57,0.32
-9.51,-0.53,0.39
-9.48,-0.56,0.35
-9.46,-0.54,0.35
-9.53,-0.57,0.41
-9.54,-0.44,0.42
-9.57,-0.56,0.32
-9.51,-0.53,0.34
-9.52,-0.55,0.29
-9.52,-0.62,0.23
-9.55,-0.47,0.32
-9.49,-0.64,0.26
-9.59,-0.49,0.32
-9.50,-0.53,0.37
-9.50,-0.57,0.29
-9.51,-0.51,0.34
-9.62,-0.53,0.31
-9.54,-0.50,0.35
-9.52,-0.65,0.34
-9.55,-0.57,0.26
-9.59,-0.48,0.29
-9.52,-0.48,0.38
-9.51,-0.57,0.28
-9.56,-0.54,0.28
-9.53,-0.57,0.26
-9.53,-0.54,0.32
-9.52,-0.50,0.37
-9.62,-0.58,0.29
-9.58,-0.59,0.30
-9.56,-0.60,0.34
-9.52,-0.55,0.31
-9.48,-0.55,0.41
-9.51,-0.49,0.30
-9.52,-0.58,0.27
-9.49,-0.59,0.33
-9.60,-0.54,0.27
-9.48,-0.58,0.21
-9.60,-0.47,0.30
-9.54,-0.55,0.32
-9.57,-0.45,0.33
-9.57,-0.35,0.33
-9.51,-0.67,0.40
-9.46,-0.51,0.35
-9.51,-0.51,0.43
-9.49,-0.60,0.43
-9.58,-0.44,0.37
-9.54,-0.57,0.24
-9.61,-0.54,0.30
-9.54,-0.52,0.38
-9.53,-0.53,0.33
-9.60,-0.56,0.38
-9.65,-0.52,0.28
-9.51,-0.57,0.30
-9.51,-0.49,0.31
-9.58,-0.57,0.28
-9.51,-0.46,0.38
-9.55,-0.58,0.41
-9.56,-0.47,0.43
-9.55,-0.48,0.37
-9.48,-0.55,0.36
-9.60,-0.49,0.41
-9.48,-0.48,0.48
-9.49,-0.44,0.44
-9.53,-0.48,0.38
-9.61,-0.45,0.32
-9.57,-0.54,0.42
-9.50,-0.53,0.37
-9.52,-0.39,0.36
-9.51,-0.50,0.35
-9.49,-0.41,0.34
-9.54,-0.46,0.39
-9.58,-0.50,0.45
-9.54,-0.48,0.32
-9.51,-0.51,0.34
-9.53,-0.57,0.36
-9.54,-0.48,0.45
-9.51,-0.54,0.43
-9.50,-0.55,0.47
-9.54,-0.42,0.45
-9.48,-0.49,0.43
-9.53,-0.45,0.49
-9.49,-0.38,0.41
-9.57,-0.50,0.42
-9.56,-0.45,0.50
-9.54,-0.48,0.53
-9.57,-0.34,0.40
-9.55,-0.47,0.36
-9.50,-0.52,0.40
-9.51,-0.39,0.44
-9.48,-0.45,0.51
-9.58,-0.45,0.45
-9.46,-0.37,0.32
-9.50,-0.47,0.38
-9.52,-0.41,0.34
-9.57,-0.45,0.47
-9.54,-0.49,0.41
-9.49,-0.53,0.38
-9.55,-0.49,0.37
-9.54,-0.52,0.50
-9.57,-0.49,0.39
-9.55,-0.52,0.35
-9.58,-0.51,0.36
-9.50,-0.49,0.34
-9.49,-0.50,0.39
-9.52,-0.49,0.46
-9.48,-0.49,0.41
-9.53,-0.57,0.41
-9.50,-0.50,0.39
-9.52,-0.50,0.43
-9.54,-0.51,0.41
-9.51,-0.51,0.45
-9.56,-0.41,0.30
-9.49,-0.43,0.45
-9.51,-0.49,0.46
-9.53,-0.46,0.45
-9.53,-0.44,0.38
-9.52,-0.46,0.41
-9.59,-0.51,0.46
-9.55,-0.51,0.40
-9.59,-0.53,0.38
-9.56,-0.45,0.36
-9.55,-0.57,0.33
-9.53,-0.56,0.38
-9.47,-0.53,0.27
-9.55,-0.45,0.34
-9.52,-0.56,0.23
-9.53,-0.56,0.27
-9.50,-0.58,0.35
-9.52,-0.51,0.38
-9.52,-0.53,0.31
-9.50,-0.46,0.38
-9.55,-0.57,0.33
-9.56,-0.43,0.34
-9.54,-0.54,0.29
-9.54,-0.50,0.36
-9.56,-0.49,0.31
-9.54,-0.53,0.38
-9.52,-0.51,0.33
-9.56,-0.49,0.31
-9.51,-0.51,0.32
-9.52,-0.54,0.33
-9.50,-0.50,0.28
-9.51,-0.64,0.29
-9.57,-0.43,0.41
-9.51,-0.58,0.32
-9.58,-0.50,0.35
-9.51,-0.53,0.37
-9.57,-0.51,0.33
-9.52,-0.53,0.37
-9.57,-0.60,0.29
-9.59,-0.53,0.28
-9.51,-0.67,0.19
-9.55,-0.59,0.27
-9.56,-0.60,0.31
-9.58,-0.52,0.24
-9.55,-0.60,0.29
-9.55,-0.50,0.34
-9.47,-0.48,0.28
-9.57,-0.54,0.30
-9.56,-0.43,0.29
-9.48,-0.53,0.25
-9.46,-0.58,0.33
-9.53,-0.55,0.30
-9.65,-0.60,0.32
-9.56,-0.50,0.28
-9.51,-0.55,0.34
-9.55,-0.60,0.27
-9.56,-0.56,0.20
-9.51,-0.48,0.14
-9.42,-0.16,0.42
-9.61,-0.35,0.40
-9.74,-0.47,0.40
-9.51,-0.48,0.41
-9.36,-1.20,-0.23
-9.41,-0.43,-0.23
-9.49,-0.90,0.23
-9.73,-1.52,-0.43
-8.92,-0.54,0.63
-8.99,-0.91,0.82
-9.84,-1.20,0.47
-9.01,-1.14,0.69
-9.59,-1.40,0.49
-9.11,-0.66,1.19
-9.51,-0.24,0.61
-9.79,-0.50,0.92
-9.42,-0.56,1.00
-9.98,-0.94,1.69
-10.28,-1.09,2.78
-9.20,-2.01,3.40
-8.65,-1.58,5.25
-7.47,-1.79,6.06
-5.88,-2.83,6.49
-4.86,-3.05,7.46
-3.39,-3.66,7.70
-1.47,-4.62,7.36
-0.46,-5.42,7.02
0.51,-6.63,6.76
2.44,-5.32,6.20
2.25,-5.74,5.30
1.89,-6.78,5.34
1.83,-5.57,6.45
2.09,-5.96,6.71
1.82,-5.82,6.40
2.03,-5.93,6.64
1.96,-5.46,6.78
1.97,-5.74,7.13
1.66,-4.56,7.39
1.51,-5.51,7.99
1.37,-4.55,7.43
1.49,-4.69,8.15
0.94,-3.88,8.34
0.51,-4.70,7.92
0.50,-4.33,8.22
0.52,-4.51,7.81
0.62,-4.33,7.68
0.65,-4.77,8.37
0.58,-4.36,7.69
0.68,-4.66,8.00
0.68,-4.68,7.90
0.79,-4.30,7.77
1.00,-4.60,7.78
0.81,-4.78,7.99
0.94,-4.26,7.87
0.91,-4.42,7.97
0.81,-4.12,8.06
0.88,-4.27,8.01
0.97,-4.18,8.02
0.90,-4.58,7.84
0.88,-4.31,7.81
0.78,-4.30,8.06
0.75,-4.23,8.10
0.96,-4.22,7.93
0.94,-4.30,7.92
1.00,-3.86,8.00
1.04,-4.43,7.94
0.91,-4.38,7.87
1.04,-4.09,7.90
0.47,-4.00,8.31
0.81,-4.35,8.26
0.93,-3.82,7.93
0.91,-3.87,8.02
0.88,-3.85,8.17
0.78,-3.96,8.30
0.85,-3.86,8.06
0.79,-4.01,7.99
0.61,-3.52,8.03
0.31,-2.84,7.87
-0.32,-3.85,7.69
-1.29,-4.04,7.74
-3.22,-4.69,7.50
-3.85,-3.48,7.14
-5.66,-4.48,6.15
-6.82,-2.70,5.29
-7.96,-2.60,4.41
-8.53,-2.74,3.81
-9.11,-2.49,2.89
-9.49,-1.79,0.95
-10.33,-1.46,0.69
-9.42,0.12,-0.05
-9.58,-0.07,0.21
-9.71,0.18,0.42
-9.40,-0.32,0.20
-9.24,-0.05,0.36
-9.58,0.04,0.82
-9.60,-0.45,-0.05
-9.33,-0.60,0.59
-9.62,0.00,0.89
-9.82,-0.41,1.17
-9.48,-1.41,0.12
-9.39,-1.37,-0.12
-9.79,-1.20,1.80
-9.84,-0.98,1.02
-9.06,-1.65,1.25
-8.97,-0.92,1.35
-8.97,-0.71,1.85
-9.17,0.39,1.68
-8.75,0.14,2.13
-9.02,-1.38,2.04
-9.61,0.56,2.97
-9.41,-0.26,2.88
-9.11,-1.59,4.15
-7.41,-1.92,5.19
-6.03,-3.16,6.23
-4.90,-3.64,6.78
-4.00,-3.90,7.39
-2.49,-5.56,7.02
-0.76,-5.30,7.20
0.31,-5.37,7.09
1.64,-5.54,6.97
1.66,-6.00,5.96
1.99,-6.34,5.25
2.41,-6.25,5.65
2.44,-6.07,5.85
2.89,-6.42,6.71
2.90,-5.70,6.48
3.04,-5.48,6.60
2.72,-4.29,7.02
1.81,-4.51,7.58
1.76,-5.84,7.35
1.30,-4.63,7.39
0.75,-3.72,7.61
1.01,-3.96,7.89
0.80,-4.63,7.92
0.63,-4.52,8.11
-0.09,-3.91,8.13
-0.45,-3.60,8.29
0.01,-3.98,8.77
0.53,-3.90,7.96
0.65,-3.52,8.19
0.34,-4.17,8.31
0.87,-3.91,7.93
0.78,-3.85,8.18
0.73,-4.16,8.09
0.60,-4.05,8.19
0.62,-3.87,8.04
0.57,-4.01,8.09
0.70,-3.99,8.13
0.55,-3.96,8.12
0.80,-4.01,8.14
0.67,-4.02,8.07
0.69,-4.00,8.03
0.61,-3.98,8.18
0.63,-4.18,8.23
0.71,-4.03,8.08
0.70,-3.81,8.15
0.68,-4.07,8.15
0.72,-3.94,8.21
0.72,-4.09,8.08
0.73,-4.11,8.08
0.63,-3.91,8.21
0.78,-3.89,8.23
0.76,-4.04,8.11
0.76,-4.00,8.17
0.83,-3.63,8.43
0.83,-3.83,8.15
0.73,-3.98,8.26
0.61,-4.40,7.95
0.74,-3.93,8.23
0.83,-3.83,8.25
0.71,-3.47,8.47
0.91,-3.96,7.92
0.88,-4.58,7.63
0.97,-3.99,7.76
0.78,-4.44,7.97
1.05,-4.60,7.99
0.94,-4.03,7.97
0.87,-4.30,8.07
0.84,-4.17,7.83
0.41,-3.59,7.82
-0.11,-3.92,7.69
-1.32,-3.45,7.62
-3.62,-3.75,7.50
-4.65,-2.59,7.01
-7.39,-1.85,5.91
-8.15,-1.90,4.16
-9.06,-1.73,2.92
-9.50,-1.08,1.77
-9.86,-0.68,1.21
-9.51,-0.45,0.52
-9.45,-0.25,0.75
-9.45,-0.13,0.88
-9.56,-0.46,0.79
-9.69,-0.69,0.35
-9.55,-0.31,0.28
-9.31,-0.56,0.94
-9.62,-0.17,1.14
-9.63,-0.19,1.00
-9.50,-0.94,0.88
-9.54,-0.20,1.04
-9.47,-0.87,0.25
-9.36,-1.21,0.17
-8.62,-1.21,1.49
-8.79,-1.97,0.91
-9.96,-1.51,1.69
-9.24,-1.51,1.68
-10.25,-1.15,2.60
-8.64,-0.18,1.92
-9.19,-0.68,2.31
-9.66,-1.36,2.12
-9.39,-0.98,1.50
-9.27,-0.84,1.61
-9.18,-0.80,1.78
-9.11,-0.62,1.87
-9.07,-0.68,1.79
-9.26,-0.34,1.61
-9.19,-0.78,1.48
-9.32,-0.56,1.61
-9.38,-0.66,1.71
-9.20,-0.79,1.74
-9.25,-0.68,1.70
-9.14,-0.69,1.58
-9.22,-0.83,1.60
-9.22,-0.69,1.61
-9.22,-1.93,1.39
-9.39,-1.15,2.16
-9.21,-1.29,2.44
-8.89,-1.84,3.15
-8.28,-2.03,3.75
-7.83,-2.62,4.44
-7.09,-3.12,5.11
-6.30,-3.81,5.29
-5.09,-4.29,6.50
-4.53,-4.44,6.86
-3.69,-4.76,6.95
-2.36,-5.48,6.55
-0.92,-6.29,6.48
-0.07,-5.76,6.45
0.63,-6.45,6.43
0.96,-6.83,6.19
2.69,-6.59,6.79
2.17,-5.82,4.94
2.11,-6.58,5.64
2.34,-6.36,6.05
2.77,-6.15,5.81
2.39,-5.62,6.89
2.29,-6.29,6.28
2.43,-6.27,6.20
2.26,-6.43,6.47
2.70,-6.08,6.31
2.40,-5.29,6.84
2.51,-5.14,7.01
2.16,-5.46,6.96
2.33,-5.85,6.93
1.49,-5.27,7.79
1.79,-5.25,7.50
1.12,-5.00,7.11
1.46,-5.62,7.57
1.06,-4.95,7.30
1.76,-5.20,6.99
1.19,-5.38,7.23
1.00,-5.64,7.15
0.96,-5.29,6.76
0.74,-5.66,6.93
0.68,-5.72,7.19
0.99,-6.00,7.17
0.99,-5.23,7.00
1.04,-5.84,7.30
0.81,-5.80,7.43
0.79,-5.42,7.19
0.78,-5.72,7.23
0.82,-5.34,7.13
0.98,-6.08,7.05
0.75,-5.43,7.29
0.91,-5.79,7.17
1.01,-5.93,7.10
0.95,-5.81,6.93
1.03,-5.30,6.96
1.13,-5.41,7.06
0.96,-5.62,7.39
0.91,-5.44,7.31
1.02,-5.33,7.29
0.92,-5.32,7.33
0.93,-5.49,7.35
0.99,-5.59,7.33
0.97,-5.23,7.29
1.04,-5.61,7.13
1.02,-5.10,7.24
1.02,-5.84,7.40
0.95,-5.38,7.16
0.89,-5.12,7.22
0.97,-5.43,7.35
0.88,-5.39,7.36
0.89,-5.28,7.19
0.92,-5.19,7.55
0.95,-5.33,7.58
0.91,-5.37,7.36
0.96,-5.43,7.35
1.04,-5.18,7.45
0.95,-5.15,7.39
0.99,-4.97,7.57
0.86,-5.10,7.57
0.95,-5.22,7.30
0.98,-5.07,7.54
0.94,-5.13,7.40
0.88,-5.06,7.39
0.78,-4.95,7.65
0.68,-4.73,7.70
0.68,-5.06,7.59
0.60,-4.95,7.57
0.76,-5.07,7.54
0.58,-4.61,7.66
0.66,-4.98,7.54
0.66,-4.75,7.73
0.71,-4.96,7.61
0.65,-4.54,7.55
0.84,-4.88,7.52
0.74,-4.87,7.56
0.84,-5.33,7.56
0.82,-5.09,7.43
0.67,-4.66,7.47
0.79,-4.97,7.51
0.63,-5.08,7.42
0.64,-5.19,7.58
0.66,-4.98,7.76
0.82,-4.64,7.46
0.65,-4.98,7.61
0.38,-4.05,8.21
-0.23,-4.40,7.49
-0.42,-4.64,7.01
-1.75,-4.38,6.69
-4.05,-4.11,7.03
-5.49,-4.25,5.99
-7.33,-4.23,5.16
-8.20,-3.25,4.12
-9.17,-1.95,2.37
-9.87,-1.59,1.57
-9.52,-0.92,0.22
-9.72,-1.68,-0.39
-9.62,-0.28,-0.23
-9.63,-0.49,0.40
-9.58,-0.43,0.09
-9.56,-0.64,0.28
-9.56,-0.31,0.35
-9.60,-0.37,0.30
-9.48,-0.67,0.30
-9.29,-0.67,0.24
-9.61,-0.51,0.23
-9.45,-0.79,0.38
-9.80,-0.48,0.57
-9.58,0.01,0.48
-9.37,-0.34,0.74
-9.52,-0.36,0.90
-9.44,-0.12,0.63
-9.62,-0.41,0.62
-9.58,-0.72,0.88
-9.15,-1.18,0.01
-9.62,-1.31,0.25
-8.95,-1.10,0.19
-8.73,-0.75,1.10
-8.92,-0.70,1.66
-9.02,-0.62,1.53
-9.26,-1.23,1.37
-9.21,-1.25,1.43
-9.18,-1.03,1.14
-9.41,-1.30,1.25
-9.33,-0.91,1.44
-9.43,-1.50,1.56
-9.59,-1.76,1.97
-9.14,-2.43,2.41
-8.27,-2.50,3.47
-7.49,-3.90,4.71
-6.55,-4.29,4.90
-5.47,-4.68,5.54
-4.51,-4.96,6.37
-3.41,-5.85,6.23
-2.68,-6.98,6.63
-1.40,-6.27,6.64
0.23,-5.91,6.50
1.25,-6.15,6.50
1.66,-5.29,6.13
2.21,-6.96,5.66
2.25,-6.44,5.71
2.04,-6.56,5.31
2.38,-6.67,5.74
2.35,-6.41,6.19
2.43,-6.46,6.12
2.27,-6.97,5.66
2.02,-6.34,6.20
2.23,-6.83,5.92
2.29,-6.63,6.13
2.30,-6.23,6.15
2.36,-6.26,6.02
2.03,-5.66,6.04
2.47,-6.26,6.26
2.15,-6.53,6.28
2.29,-6.54,6.34
2.09,-6.10,6.24
1.81,-5.55,6.71
1.39,-4.32,6.74
0.87,-5.36,6.66
0.69,-4.99,7.34
0.88,-4.85,7.69
0.22,-5.32,7.21
0.57,-5.62,7.32
0.67,-4.82,7.49
0.75,-5.04,7.70
0.40,-5.31,7.70
0.79,-5.08,7.64
0.87,-4.85,7.45
0.92,-4.98,7.77
0.93,-5.06,7.49
0.97,-5.12,7.51
1.04,-4.83,7.36
0.88,-4.84,7.38
1.07,-4.85,7.54
0.97,-5.15,7.66
1.18,-4.84,7.51
1.08,-5.06,7.65
1.03,-5.05,7.42
1.14,-4.98,7.58
1.25,-4.98,7.64
1.17,-4.95,7.55
1.19,-4.98,7.50
1.18,-4.76,7.58
1.07,-4.85,7.66
1.15,-4.98,7.58
1.13,-4.86,7.92
1.27,-4.73,7.56
1.23,-4.64,7.71
1.07,-4.74,7.69
1.13,-4.80,7.83
1.22,-4.73,7.65
1.14,-4.64,7.69
1.06,-4.92,7.79
1.01,-4.85,7.64
1.21,-5.13,7.55
1.06,-4.57,7.76
1.15,-4.78,7.80
1.07,-4.40,7.92
1.08,-4.59,7.81
1.12,-5.02,7.46
1.04,-4.49,7.76
1.04,-4.98,7.66
1.13,-4.93,7.71
1.11,-4.64,7.70
0.96,-4.90,7.81
1.08,-4.62,7.72
1.07,-4.65,7.80
0.99,-4.60,7.74
1.04,-4.46,7.59
0.93,-4.57,7.57
0.83,-4.60,7.40
0.30,-4.33,7.54
-0.47,-4.37,7.89
-1.29,-4.39,7.71
-2.22,-4.65,7.22
-3.78,-4.59,6.91
-3.92,-3.92,6.78
-5.60,-3.62,6.41
-6.66,-2.48,5.28
-7.51,-2.72,4.94
-8.32,-1.57,3.92
-8.98,-2.01,3.06
-9.45,-1.47,1.77
-9.52,-0.97,0.89
-9.65,-0.41,0.57
-9.53,-0.49,0.25
-9.66,-0.76,0.44
-9.55,-0.35,0.38
-9.48,-0.39,0.56
-9.52,-0.57,0.49
-9.56,-0.35,0.55
-9.50,-0.39,0.59
-9.43,-0.54,0.66
-9.56,-0.34,0.68
-9.52,-0.41,0.57
-9.50,-0.41,0.57
-9.52,-0.49,0.60
-9.42,-0.48,0.50
-9.51,-0.60,0.52
-9.51,-0.45,0.57
-9.49,-0.49,0.59
-9.64,-0.50,0.64
-9.41,-0.55,0.60
-9.51,-0.52,0.57
-9.48,-0.45,0.57
-9.56,-0.60,0.47
-9.44,-0.63,0.44
-9.54,-0.67,0.50
-9.52,-0.39,0.57
-9.46,-0.46,0.63
-9.48,-0.60,0.56
-9.58,-0.52,0.55
-9.45,-0.43,0.64
-9.51,-0.54,0.45
-9.51,-0.57,0.50
-9.41,-0.51,0.45
-9.43,-0.67,0.47
-9.49,-0.62,0.41
-9.58,-0.57,0.37
-9.51,-0.19,0.71
-9.44,-0.34,0.56
-9.72,-0.56,0.65
-9.48,-0.40,0.58
-9.63,-0.22,0.78
-9.73,-0.37,0.85
-9.91,-0.13,1.14
-9.51,-1.58,0.90
-9.60,-1.41,-0.07
-8.37,-1.09,0.46
-9.17,-1.09,1.87
-9.63,-1.06,1.00
-9.41,-0.82,1.50
-9.33,-1.35,1.42
-9.40,-1.37,1.76
-9.42,-1.12,1.40
-9.63,-0.78,1.92
-8.57,-0.83,1.29
-9.29,-1.26,1.54
-9.20,-0.93,1.52
-9.50,-1.07,1.66
-9.25,-1.03,1.61
-9.23,-1.05,1.58
-9.30,-1.12,1.59
-9.04,-1.31,1.45
-9.30,-1.48,1.90
-9.14,-1.56,2.40
-8.75,-1.69,2.92
-8.53,-1.08,3.81
-7.82,-2.38,4.64
-6.18,-3.38,6.00
-4.96,-3.10,6.50
-3.74,-4.26,7.13
-2.84,-5.17,7.22
-1.67,-4.98,7.24
-0.51,-6.30,7.18
1.09,-5.90,6.70
1.31,-5.12,6.18
2.65,-5.89,6.63
2.68,-5.85,6.23
1.65,-4.91,5.58
2.70,-6.27,6.08
2.70,-5.67,6.93
2.88,-5.82,7.02
2.70,-5.73,6.45
3.07,-5.97,6.85
3.02,-5.48,6.59
3.40,-5.44,6.99
2.43,-5.13,7.02
2.04,-4.48,6.93
1.52,-4.93,7.52
0.91,-4.59,7.72
0.26,-4.74,8.60
0.52,-4.75,7.92
0.74,-4.57,7.81
0.91,-3.95,7.88
0.61,-3.98,8.07
0.62,-4.32,7.73
0.38,-4.29,8.22
0.49,-4.39,7.88
0.62,-4.20,7.91
0.77,-4.57,7.97
0.74,-4.24,8.10
0.82,-4.37,7.98
0.95,-4.74,7.90
0.93,-4.55,7.63
0.94,-4.39,8.06
0.96,-4.21,7.94
0.96,-4.45,7.66
1.03,-4.28,8.07
0.87,-4.29,7.91
0.84,-4.70,7.95
0.94,-4.44,7.99
0.99,-4.58,7.76
0.97,-4.97,7.84
0.99,-4.67,7.58
1.01,-4.66,7.61
1.05,-4.59,7.88
0.94,-4.24,7.97
1.08,-4.51,7.67
1.01,-4.75,7.85
0.98,-4.64,7.99
1.04,-4.41,7.90
1.02,-4.21,7.85
1.19,-4.87,7.90
1.05,-4.47,7.94
1.03,-4.00,8.10
1.11,-4.64,7.80
1.08,-4.56,7.95
1.11,-4.35,7.93
1.13,-4.33,7.92
1.10,-4.14,8.06
0.99,-4.30,8.01
1.00,-4.37,8.07
1.01,-4.18,7.98
1.08,-4.33,7.87
1.03,-4.21,8.07
1.07,-4.38,8.04
1.10,-4.35,7.90
1.00,-4.18,8.19
1.11,-3.98,8.10
1.00,-3.92,8.18
0.97,-4.28,7.95
1.10,-3.95,8.12
0.95,-3.70,8.33
1.00,-4.30,7.97
0.81,-4.09,8.12
0.79,-4.28,7.94
0.64,-3.92,7.81
-0.09,-4.07,7.93
-0.55,-4.02,7.94
-1.41,-3.62,7.87
-2.20,-4.17,7.23
-4.09,-3.64,6.78
-5.44,-4.23,6.38
-6.77,-3.67,5.22
-8.23,-2.71,4.11
-8.97,-2.08,3.28
-9.76,-1.46,2.53
-9.60,-1.82,1.02
-9.69,-1.22,0.30
-9.81,-0.32,0.07
-9.54,-0.66,-0.16
-9.38,-0.99,-0.51
-9.83,-0.46,0.06
-9.65,-0.29,-0.08
-9.57,-0.51,0.10
-9.66,-0.71,0.18
-9.55,-0.64,0.15
-9.48,-0.63,0.16
-9.52,-0.64,0.18
-9.56,-0.60,0.17
-9.55,-0.66,0.15
-9.57,-0.58,0.12
-9.58,-0.56,0.18
-9.54,-0.55,0.24
-9.54,-0.63,0.16
-9.58,-0.64,0.33
-9.57,-0.57,0.20
-9.57,-0.53,0.23
-9.51,-0.42,0.35
-9.50,-0.40,0.30
-9.52,-0.53,0.39
-9.63,-0.58,0.38
-9.43,-0.53,0.45
-9.50,-0.54,0.34
-9.57,-0.57,0.24
-9.60,-0.50,0.22
-9.57,-0.43,0.35
-9.59,-0.36,0.33
-9.55,-0.45,0.29
-9.62,-0.42,0.19
-9.56,-0.37,0.37
-9.67,-0.45,0.31
-9.60,-0.50,0.08
-9.52,-0.44,0.24
-9.57,-0.56,0.34
-9.51,-0.51,0.34
-9.57,-0.30,0.32
-9.62,-0.53,0.38
-9.51,-0.43,0.44
-9.51,-0.45,0.45
-9.50,-0.45,0.63
-9.56,-0.39,0.68
-9.53,-0.33,0.69
-9.49,-0.38,0.58
-9.47,-0.42,0.53
-9.48,-0.41,0.63
-9.47,-0.39,0.66
-9.54,-0.44,0.63
-9.52,-0.25,0.68
-9.49,-0.41,0.57
-9.51,-0.43,0.55
-9.51,-0.36,0.60
-9.58,-0.32,0.61
-9.51,-0.40,0.65
-9.51,-0.34,0.63
-9.51,-0.31,0.61
-9.48,-0.38,0.57
-9.47,-0.38,0.54
-9.56,-0.51,0.66
-9.43,-0.38,0.65
-9.42,-0.44,0.66
-9.56,-0.31,0.61
-9.49,-0.30,0.61
-9.54,-0.41,0.68
-9.45,-0.35,0.53
-9.50,-0.40,0.55
-9.46,-0.36,0.60
-9.49,-0.39,0.55
-9.52,-0.39,0.64
-9.56,-0.41,0.60
-9.49,-0.49,0.51
-9.55,-0.38,0.57
-9.51,-0.45,0.57
-9.53,-0.47,0.61
-9.47,-0.38,0.64
-9.51,-0.46,0.59
-9.47,-0.37,0.68
-9.54,-0.52,0.70
-9.54,-0.44,0.51
-9.50,-0.26,0.70
-9.53,-0.33,0.60
-9.47,-0.40,0.59
-9.50,-0.41,0.60
-9.40,-0.34,0.52
-9.47,-0.30,0.60
-9.49,-0.36,0.60
-9.54,-0.40,0.57
-9.52,-0.41,0.52
-9.60,-0.43,0.64
-9.55,-0.41,0.54
-9.54,-0.45,0.61
-9.56,-0.45,0.63
-9.46,-0.40,0.61
-9.50,-0.36,0.65
-9.38,-0.31,0.60
-9.51,-0.35,0.61
-9.44,-0.38,0.63
-9.48,-0.43,0.65
-9.50,-0.37,0.65
-9.51,-0.49,0.67
-9.56,-0.33,0.60
-9.53,-0.26,0.80
-9.55,-0.30,0.74
-9.51,-0.37,0.62
-9.47,-0.40,0.67
-9.47,-0.38,0.67
-9.49,-0.38,0.63
-9.50,-0.34,0.68
-9.53,-0.30,0.70
-9.46,-0.40,0.64
-9.57,-0.35,0.56
-9.61,-0.35,0.57
-9.50,-0.45,0.65
-9.51,-0.42,0.65
-9.56,-0.38,0.68
-9.49,-0.40,0.63
-9.55,-0.33,0.49
-9.54,-0.40,0.65
-9.48,-0.45,0.65
-9.47,-0.38,0.64
-9.50,-0.41,0.57
-9.50,-0.34,0.57
-9.55,-0.36,0.69
-9.49,-0.52,0.57
-9.53,-0.52,0.59
-9.53,-0.44,0.57
-9.47,-0.44,0.59
-9.51,-0.51,0.62
-9.57,-0.38,0.56
-9.51,-0.43,0.55
-9.54,-0.38,0.62
-9.50,-0.41,0.58
-9.57,-0.44,0.57
-9.54,-0.38,0.55
-9.54,-0.43,0.58
-9.53,-0.35,0.50
-9.51,-0.37,0.58
-9.50,-0.46,0.49
-9.53,-0.39,0.53
-9.48,-0.45,0.55
-9.55,-0.31,0.56
-9.54,-0.37,0.57
-9.50,-0.45,0.58
-9.49,-0.38,0.60
-9.47,-0.36,0.61
-9.52,-0.40,0.60
-9.55,-0.35,0.58
-9.50,-0.42,0.65
-9.55,-0.33,0.63
-9.47,-0.44,0.63
-9.58,-0.42,0.61
-9.53,-0.39,0.54
-9.47,-0.45,0.59
-9.54,-0.34,0.63
-9.51,-0.38,0.64
-9.48,-0.41,0.60
-9.55,-0.49,0.62
-9.54,-0.33,0.59
-9.51,-0.34,0.74
-9.54,-0.43,0.68
-9.50,-0.38,0.66
-9.50,-0.40,0.71
-9.53,-0.38,0.70
-9.47,-0.38,0.60
-9.47,-0.34,0.68
-9.50,-0.39,0.70
-9.51,-0.36,0.73
-9.49,-0.38,0.68
-9.50,-0.34,0.72
-9.51,-0.40,0.68
-9.53,-0.38,0.64
-9.48,-0.44,0.59
-9.48,-0.37,0.65
-9.47,-0.34,0.60
-9.49,-0.43,0.69
-9.51,-0.45,0.66
-9.52,-0.43,0.68
-9.50,-0.42,0.59
-9.55,-0.45,0.67
-9.59,-0.47,0.66
-9.55,-0.34,0.62
-9.49,-0.40,0.62
-9.52,-0.36,0.65
-9.46,-0.38,0.62
-9.48,-0.44,0.64
-9.50,-0.42,0.58
-9.50,-0.40,0.79
-9.52,-0.46,0.65
-9.47,-0.39,0.64
-9.51,-0.32,0.64
-9.49,-0.40,0.65
-9.52,-0.38,0.64
-9.51,-0.35,0.69
-9.52,-0.37,0.68
-9.51,-0.45,0.69
-9.49,-0.36,0.62
-9.53,-0.30,0.64
-9.54,-0.44,0.63
-9.46,-0.47,0.65
-9.53,-0.43,0.65
-9.56,-0.46,0.64
-9.44,-0.35,0.67
-9.49,-0.38,0.71
-9.52,-0.35,0.66
-9.50,-0.37,0.71
-9.54,-0.34,0.62
-9.49,-0.41,0.76
-9.50,-0.35,0.71
-9.45,-0.37,0.71
-9.49,-0.37,0.71
-9.49,-0.40,0.69
-9.49,-0.38,0.66
-9.47,-0.41,0.66
-9.44,-0.43,0.65
-9.58,-0.38,0.67
-9.51,-0.44,0.62
-9.50,-0.36,0.67
-9.47,-0.33,0.55
-9.54,-0.49,0.57
-9.48,-0.46,0.56
-9.55,-0.45,0.64
-9.54,-0.48,0.64
-9.51,-0.42,0.70
-9.50,-0.55,0.68
-9.54,-0.33,0.59
-9.54,-0.48,0.61
-9.50,-0.45,0.69
-9.50,-0.39,0.65
-9.51,-0.44,0.70
-9.55,-0.39,0.62
-9.56,-0.37,0.69
-9.51,-0.38,0.61
-9.49,-0.38,0.68
-9.47,-0.35,0.68
-9.50,-0.36,0.65
-9.46,-0.45,0.65
-9.52,-0.41,0.59
-9.50,-0.33,0.68
-9.45,-0.35,0.61
-9.48,-0.34,0.66
-9.51,-0.37,0.66
-9.52,-0.31,0.64
-9.52,-0.40,0.69
-9.46,-0.37,0.67
-9.49,-0.40,0.70
-9.52,-0.45,0.68
-9.48,-0.37,0.74
-9.46,-0.42,0.74
-9.55,-0.49,0.68
-9.47,-0.44,0.60
-9.46,-0.46,0.64
-9.53,-0.45,0.65
-9.51,-0.44,0.68
-9.54,-0.46,0.59
-9.52,-0.45,0.62
-9.47,-0.46,0.65
-9.49,-0.44,0.69
-9.51,-0.42,0.68
-9.54,-0.38,0.62
-9.57,-0.40,0.55
-9.50,-0.39,0.62
-9.47,-0.38,0.62
-9.49,-0.41,0.62
-9.49,-0.34,0.67
-9.47,-0.36,0.63
-9.52,-0.40,0.65
-9.46,-0.35,0.64
-9.56,-0.42,0.62
-9.49,-0.37,0.62
-9.50,-0.36,0.65
-9.47,-0.35,0.63
-9.51,-0.50,0.62
-9.48,-0.43,0.73
-9.52,-0.43,0.68
-9.51,-0.39,0.70
-9.47,-0.43,0.73
-9.52,-0.55,0.76
-9.54,-0.35,0.63
-9.51,-0.43,0.68
-9.53,-0.38,0.67
-9.48,-0.36,0.73
-9.50,-0.40,0.72
-9.47,-0.37,0.66
-9.51,-0.35,0.68
-9.48,-0.39,0.78
-9.49,-0.36,0.72
-9.48,-0.39,0.71
-9.54,-0.39,0.74
-9.39,-0.33,0.76
-9.53,-0.34,0.78
-9.44,-0.36,0.74
-9.49,-0.36,0.71
-9.49,-0.38,0.68
-9.49,-0.34,0.66
-9.52,-0.44,0.70
-9.53,-0.42,0.74
-9.45,-0.33,0.76
-9.54,-0.40,0.72
-9.44,-0.35,0.79
-9.44,-0.33,0.83
-9.43,-0.28,0.75
-9.55,-0.46,0.82
-9.51,-0.36,0.75
-9.51,-0.36,0.69
-9.51,-0.37,0.74
-9.50,-0.45,0.73
-9.53,-0.38,0.67
-9.53,-0.35,0.76
-9.53,-0.37,0.74
-9.49,-0.38,0.75
-9.52,-0.38,0.71
-9.53,-0.43,0.79
-9.55,-0.39,0.68
-9.51,-0.39,0.75
-9.51,-0.32,0.69
-9.48,-0.35,0.69
-9.50,-0.40,0.74
-9.52,-0.29,0.72
-9.44,-0.38,0.72
-9.51,-0.38,0.73
-9.52,-0.35,0.79
-9.50,-0.36,0.77
-9.55,-0.34,0.73
-9.51,-0.42,0.76
-9.45,-0.45,0.72
-9.54,-0.41,0.73
-9.44,-0.32,0.64
-9.52,-0.39,0.69
-9.48,-0.38,0.70
-9.41,-0.34,0.69
-9.49,-0.34,0.68
-9.49,-0.37,0.63
-9.50,-0.35,0.74
-9.51,-0.41,0.73
-9.48,-0.32,0.73
-9.48,-0.32,0.74
-9.53,-0.46,0.63
-9.51,-0.35,0.74
-9.49,-0.32,0.70
-9.48,-0.34,0.76
-9.47,-0.34,0.71
-9.47,-0.35,0.68
-9.51,-0.32,0.79
-9.46,-0.34,0.74
-9.49,-0.40,0.73
-9.47,-0.40,0.66
-9.51,-0.44,0.76
-9.44,-0.43,0.79
-9.50,-0.39,0.73
-9.51,-0.34,0.67
-9.50,-0.47,0.68
-9.53,-0.40,0.71
-9.52,-0.33,0.72
-9.47,-0.36,0.72
-9.49,-0.35,0.71
-9.54,-0.31,0.67
-9.54,-0.32,0.74
-9.45,-0.40,0.70
-9.52,-0.33,0.71
-9.51,-0.38,0.70
-9.52,-0.40,0.68
-9.46,-0.36,0.69
-9.44,-0.39,0.76
-9.46,-0.39,0.72
-9.46,-0.32,0.74
-9.51,-0.40,0.72
-9.44,-0.34,0.70
-9.48,-0.31,0.73
-9.60,-0.38,0.71
-9.56,-0.45,0.66
-9.51,-0.45,0.65
-9.51,-0.39,0.62
-9.50,-0.35,0.67
-9.46,-0.40,0.68
-9.62,1.05,-1.69
-9.62,1.20,-1.68
-9.63,1.17,-1.80
-9.58,1.09,-1.70
-9.41,1.10,-1.61
-9.59,1.25,-1.68
-9.70,1.18,-1.62
-9.48,1.17,-1.68
-9.55,1.20,-1.58
-9.59,1.23,-1.81
-9.68,1.05,-1.67
-9.59,1.24,-1.78
-9.42,1.02,-1.71
-9.66,1.39,-1.56
-9.55,1.17,-1.47
-9.58,1.21,-1.49
-9.68,1.08,-1.39
-9.53,1.23,-1.47
-9.69,1.25,-1.47
-9.61,1.24,-1.39
-9.60,1.22,-1.44
-9.56,1.21,-1.47
-9.66,1.18,-1.39
-9.44,1.20,-1.56
-9.58,1.28,-1.41
-9.62,1.39,-1.38
-9.51,1.11,-1.31
-9.58,1.32,-1.35
-9.60,1.29,-1.47
-9.55,1.31,-1.36
-9.64,1.03,-1.26
-9.53,1.23,-1.39
-9.56,1.24,-1.61
-9.56,1.28,-1.56
-9.59,1.26,-1.54
-9.60,1.25,-1.58
-9.49,1.26,-1.32
-9.55,1.26,-1.44
-9.63,1.30,-1.50
-9.87,1.32,-1.47
-9.54,1.29,-1.50
-9.51,1.36,-1.70
-9.81,0.88,-1.74
-9.50,1.18,-2.16
-9.63,1.18,-1.73
-9.30,1.13,-1.93
-9.44,1.54,-1.69
-9.28,1.36,-1.73
-9.39,1.56,-1.78
-9.67,1.80,-1.67
-9.48,1.23,-1.48
-9.49,1.59,-1.79
-9.62,1.38,-1.67
-9.63,1.32,-1.69
-9.64,1.31,-1.56
-9.59,1.43,-1.65
-9.44,1.36,-1.61
-9.63,1.40,-1.44
-9.56,1.34,-1.48
-9.55,1.49,-1.41
-9.57,1.45,-1.46
-9.51,1.36,-1.48
-9.53,1.41,-1.54
-9.52,1.46,-1.59
-9.52,1.44,-1.51
-9.59,1.41,-1.48
-9.54,1.41,-1.43
-9.60,1.47,-1.49
-9.62,1.43,-1.47
-9.54,1.41,-1.58
-9.53,1.38,-1.49
-9.54,1.44,-1.54
-9.52,1.48,-1.55
-9.59,1.40,-1.47
-9.62,1.43,-1.52
-9.51,1.45,-1.54
-9.61,1.42,-1.53
-9.59,1.41,-1.49
-9.59,1.43,-1.55
-9.40,1.41,-1.68
-9.71,1.38,-1.56
-9.52,1.38,-1.46
-9.72,1.37,-1.46
-9.58,1.25,-1.55
-9.54,1.44,-1.43
-9.65,1.27,-1.34
-9.50,1.29,-1.54
-9.47,1.34,-1.40
-9.53,1.48,-1.42
-9.50,1.60,-1.52
-9.59,1.40,-1.56
-9.52,1.45,-1.69
-9.52,1.51,-1.79
-9.46,1.73,-1.53
-9.32,1.63,-1.50
-9.48,1.25,-1.33
-9.61,1.27,-1.57
-9.59,1.17,-1.48
-9.49,1.38,-1.50
-9.41,1.41,-1.39
-9.52,1.47,-1.48
-9.57,1.30,-1.42
-9.57,1.21,-1.44
-9.55,1.12,-1.30
-9.54,1.22,-1.35
-9.54,1.23,-1.38
-9.57,1.22,-1.37
-9.55,1.30,-1.40
-9.59,1.37,-1.46
-9.62,1.23,-1.37
-9.59,1.18,-1.36
-9.57,1.29,-1.36
-9.63,1.24,-1.38
-9.55,1.26,-1.43
-9.60,1.24,-1.37
-9.60,1.30,-1.46
-9.62,1.29,-1.36
-9.59,1.25,-1.41
-9.63,1.26,-1.38
-9.63,1.28,-1.41
-9.62,1.26,-1.37
-9.56,1.29,-1.43
-9.53,1.30,-1.45
-9.55,1.29,-1.46
-9.60,1.27,-1.37
-9.60,1.28,-1.42
-9.58,1.34,-1.39
-9.59,1.27,-1.41
-9.56,1.30,-1.43
-9.55,1.31,-1.42
-9.59,1.33,-1.34
-9.56,1.33,-1.41
-9.58,1.31,-1.47
-9.58,1.25,-1.43
-9.57,1.30,-1.40
-9.63,1.29,-1.45
-9.69,1.28,-1.33
-9.55,1.28,-1.51
-9.57,1.32,-1.41
-9.58,1.28,-1.45
-9.57,1.30,-1.37
-9.54,1.32,-1.46
-9.55,1.27,-1.39
-9.49,1.34,-1.34
-9.57,1.34,-1.44
-9.56,1.27,-1.46
-9.55,1.37,-1.38
-9.50,1.37,-1.42
-9.61,1.32,-1.46
-9.59,1.23,-1.49
-9.60,1.30,-1.51
-9.49,1.30,-1.47
-9.55,1.27,-1.44
-9.46,1.16,-1.44
-9.61,1.30,-1.49
-9.55,1.33,-1.36
-9.61,1.28,-1.46
-9.62,1.27,-1.45
-9.59,1.31,-1.35
-9.59,1.23,-1.33
-9.62,1.23,-1.34
-9.57,1.24,-1.41
-9.63,1.29,-1.41
-9.58,1.22,-1.31
-9.55,1.30,-1.38
-9.54,1.30,-1.39
-9.62,1.31,-1.31
-9.56,1.26,-1.33
-9.57,1.28,-1.42
-9.60,1.24,-1.33
-9.53,1.25,-1.31
-9.51,1.23,-1.41
-9.58,1.25,-1.37
-9.53,1.27,-1.35
-9.54,1.28,-1.33
-9.54,1.22,-1.30
-9.58,1.33,-1.35
-9.57,1.24,-1.40
-9.57,1.25,-1.38
-9.64,1.24,-1.26
-9.62,1.18,-1.42
-9.61,1.27,-1.33
-9.55,1.24,-1.24
-9.59,1.21,-1.32
-9.64,1.19,-1.34
-9.61,1.12,-1.24
-9.62,1.20,-1.37
-9.59,1.34,-1.24
-9.56,1.19,-1.30
-9.54,1.18,-1.24
-9.58,1.24,-1.37
-9.64,1.17,-1.13
-9.60,1.18,-1.25
-9.60,1.30,-1.42
-9.65,1.12,-1.29
-9.62,1.27,-1.32
-9.59,1.27,-1.22
-9.62,1.25,-1.33
-9.59,1.21,-1.32
-9.60,1.37,-1.35
-9.57,1.21,-1.31
-9.58,1.36,-1.33
-9.61,1.22,-1.25
-9.66,1.21,-1.29
-9.59,1.19,-1.27
-9.65,1.23,-1.19
-9.56,1.30,-1.18
-9.62,1.25,-1.19
-9.57,1.10,-1.18
-9.57,1.25,-1.29
-9.55,1.13,-1.19
-9.55,1.26,-1.39
-9.56,1.19,-1.25
-9.57,1.17,-1.31
-9.46,1.21,-1.23
-9.50,1.32,-1.32
-9.54,1.32,-1.40
-9.62,1.38,-1.33
-9.54,1.34,-1.37
-9.58,1.24,-1.28
-9.53,1.17,-1.22
-9.49,1.19,-1.18
-9.58,1.24,-1.34
-9.58,1.31,-1.36
-9.54,1.15,-1.22
-9.62,1.23,-1.30
-9.52,1.13,-1.22
-9.60,1.13,-1.22
-9.54,1.32,-1.36
-9.54,1.23,-1.37
-9.60,1.28,-1.33
-9.63,1.14,-1.06
-9.57,1.17,-1.42
-9.65,1.26,-1.30
-9.61,1.32,-1.25
-9.59,1.28,-1.26
-9.55,1.14,-1.32
-9.62,1.27,-1.28
-9.51,1.28,-1.18
-9.61,1.17,-1.27
-9.65,1.27,-1.24
-9.61,1.28,-1.25
-9.53,1.32,-1.36
-9.58,1.29,-1.26
-9.56,1.25,-1.18
-9.59,1.20,-1.30
-9.53,1.23,-1.24
-9.57,1.29,-1.37
-9.54,1.26,-1.33
-9.55,1.28,-1.29
-9.54,1.28,-1.22
-9.55,1.24,-1.29
-9.58,1.20,-1.27
-9.57,1.31,-1.35
-9.63,1.29,-1.33
-9.59,1.29,-1.37
-9.54,1.36,-1.30
-9.58,1.24,-1.32
-9.54,1.33,-1.38
-9.59,1.23,-1.39
-9.53,1.19,-1.27
-9.53,1.29,-1.32
-9.54,1.20,-1.27
-9.55,1.40,-1.45
-9.59,1.38,-1.48
-9.52,1.22,-1.25
-9.56,1.26,-1.32
-9.65,1.25,-1.30
-9.63,1.25,-1.42
-9.65,1.31,-1.17
-9.61,1.25,-1.33
-9.55,1.25,-1.30
-9.60,1.25,-1.32
-9.52,1.28,-1.30
-9.61,1.19,-1.21
-9.61,1.30,-1.46
-9.63,1.29,-1.35
-9.56,1.17,-1.33
-9.65,1.18,-1.23
-9.58,1.19,-1.23
-9.58,1.29,-1.43
-9.53,1.28,-1.20
-9.56,1.34,-1.44
-9.63,1.25,-1.30
-9.59,1.26,-1.37
-9.60,1.30,-1.44
-9.68,1.20,-1.20
-9.58,1.27,-1.25
-9.52,1.20,-1.30
-9.54,1.25,-1.34
-9.56,1.30,-1.35
-9.57,1.26,-1.35
-9.60,1.25,-1.28
-9.58,1.22,-1.25
-9.55,1.25,-1.42
-9.52,1.27,-1.29
-9.54,1.23,-1.36
-9.52,1.20,-1.28
-9.51,1.32,-1.43
-9.54,1.18,-1.30
-9.53,1.38,-1.37
-9.55,1.30,-1.40
-9.54,1.26,-1.37
-9.55,1.25,-1.42
-9.49,1.24,-1.22
-9.53,1.25,-1.33
-9.53,1.18,-1.24
-9.56,1.36,-1.38
-9.57,1.27,-1.30
-9.59,1.32,-1.37
-9.61,1.29,-1.31
-9.61,1.22,-1.35
-9.51,1.29,-1.31
-9.60,1.30,-1.37
-9.62,1.36,-1.43
-9.60,1.27,-1.35
-9.60,1.26,-1.37
-9.58,1.21,-1.34
-9.59,1.24,-1.31
-9.57,1.21,-1.33
-9.69,1.24,-1.26
-9.56,1.28,-1.32
-9.46,1.25,-1.36
-9.48,1.26,-1.41
-9.59,1.25,-1.37
-9.56,1.25,-1.38
-9.62,1.25,-1.37
-9.57,1.17,-1.34
-9.56,1.24,-1.26
-9.55,1.35,-1.49
-9.59,1.29,-1.45
-9.60,1.17,-1.29
-9.49,1.34,-1.34
-9.60,1.28,-1.48
-9.67,1.22,-1.45
-9.63,1.30,-1.38
-9.58,1.26,-1.42
-9.63,1.39,-1.55
-9.52,1.30,-1.35
-9.62,1.26,-1.43
-9.59,1.23,-1.40
-9.65,1.15,-1.18
-9.58,1.43,-1.26
-9.66,1.51,-1.18
-9.67,1.51,-0.98
-9.62,1.46,-1.07
-9.59,1.98,-0.93
-9.59,1.11,-1.09
-9.88,1.80,-1.10
-9.44,1.82,-0.85
-9.72,1.46,-0.41
-9.25,1.58,0.05
-9.35,1.42,0.44
-9.87,1.63,0.38
-9.57,1.38,0.63
-9.52,1.81,0.84
-9.24,1.86,1.12
-9.49,1.63,1.18
-9.62,1.80,1.93
-9.30,2.53,2.46
-8.78,2.56,2.59
-8.39,2.43,3.78
-7.64,3.45,3.79
-7.17,4.56,5.51
-5.77,5.25,5.87
-3.79,5.62,6.04
-2.15,6.16,6.07
-0.47,7.83,5.62
0.80,7.66,4.25
1.66,8.05,3.88
2.21,8.11,3.85
2.18,8.71,4.03
2.20,8.87,3.81
1.92,8.83,3.77
1.82,9.24,3.70
1.67,9.30,3.53
2.37,9.01,3.31
2.04,7.93,3.99
-2.95,7.35,1.98
2.10,7.12,5.05
1.68,7.70,4.46
1.53,7.35,5.73
2.15,6.91,4.52
2.09,6.98,6.90
2.01,6.75,6.79
2.59,6.47,7.08
2.60,5.68,7.10
2.45,5.97,7.05
2.51,6.34,6.51
2.32,6.64,6.55
2.62,6.59,6.54
2.44,6.85,6.38
2.44,6.68,6.15
2.61,6.79,6.22
2.54,6.78,6.27
2.54,6.71,6.46
2.50,6.77,6.28
2.37,6.95,6.38
2.43,6.84,6.31
2.29,6.93,6.28
2.28,7.00,6.25
2.32,6.96,6.23
2.37,6.92,6.30
2.31,6.89,6.31
2.32,6.83,6.27
2.17,7.05,6.03
2.25,7.02,5.95
2.10,7.33,5.53
1.37,7.24,4.95
0.14,7.57,4.36
-2.44,7.99,4.71
-3.40,7.91,3.23
-5.16,8.49,3.10
-6.52,7.59,1.50
-6.31,7.67,0.49
-6.87,7.03,0.25
-8.22,7.05,-0.97
-7.99,4.92,-1.35
-9.20,3.63,-1.75
-8.83,3.16,-2.75
-10.28,1.92,-0.92
-9.88,2.38,-1.63
-9.62,1.13,-1.74
-9.41,1.58,-1.49
-9.57,1.36,-1.53
-9.40,1.79,-1.68
-9.55,2.81,-1.42
-9.10,3.14,-1.28
-8.66,2.60,-1.17
-9.14,1.96,-1.94
-9.60,1.60,-1.01
-9.59,1.69,-1.03
-9.37,2.15,-1.02
-9.69,1.53,-0.52
-9.59,1.55,0.30
-9.47,2.02,0.44
-9.54,1.25,1.47
-9.26,2.00,1.28
-9.32,2.09,2.04
-8.79,1.87,1.64
-8.30,1.55,1.45
-9.35,1.59,2.90
-9.29,1.77,2.71
-8.55,1.72,2.34
-9.02,1.83,2.38
-8.60,2.15,2.99
-8.75,1.97,2.59
-9.18,1.96,2.77
-9.03,1.87,2.64
-9.09,1.73,2.75
-9.00,1.70,3.45
-8.74,2.17,4.41
-8.70,2.60,5.64
-6.61,3.49,6.17
-5.51,4.34,5.59
-3.21,6.06,5.66
-0.94,7.86,6.27
0.76,7.45,3.82
1.63,8.69,3.97
1.36,8.02,4.74
1.22,9.11,3.81
0.74,8.32,4.56
0.86,8.19,4.36
1.17,8.74,4.69
1.05,8.17,4.70
-2.92,5.84,3.61
1.25,8.16,4.57
3.07,6.98,4.56
2.25,7.93,6.18
2.53,7.41,7.06
3.05,6.51,7.30
3.29,6.10,7.20
2.71,4.85,7.35
3.19,5.26,7.02
3.42,4.73,7.20
3.52,4.83,7.76
3.72,4.93,7.65
3.85,3.87,7.55
4.19,4.13,7.45
4.10,3.94,7.45
4.10,3.94,7.64
4.15,4.11,7.59
4.07,3.93,7.49
4.06,3.88,7.74
4.14,4.05,7.53
4.11,4.13,7.60
3.95,3.92,7.59
4.15,4.06,7.56
4.02,4.16,7.66
4.03,4.03,7.64
4.00,4.00,7.54
3.85,4.17,7.70
3.90,4.01,7.65
3.87,4.11,7.65
3.92,3.96,7.56
3.84,4.32,7.47
3.62,4.41,7.39
2.93,4.94,7.44
1.79,4.95,7.60
0.99,4.19,8.20
0.28,4.05,8.83
0.19,4.63,8.09
-0.72,4.96,7.25
-1.62,5.69,5.80
-3.39,6.42,4.97
-6.12,7.75,4.16
-8.00,6.19,3.17
-7.50,5.96,0.85
-8.92,5.39,-0.04
-8.40,4.54,-0.13
-9.25,3.80,-0.37
-10.18,2.27,-1.41
-9.29,1.91,-1.52
-9.81,1.71,-0.96
-10.03,1.01,-0.23
-9.53,0.97,-0.51
-9.75,1.11,-0.57
-9.58,1.16,-0.47
-9.70,1.13,-0.38
-9.40,1.31,-0.61
-9.51,1.27,-0.43
-9.55,1.34,-0.53
-9.46,1.24,-0.46
-9.49,1.25,-0.60
-9.46,1.05,-0.64
-9.68,1.14,-0.54
-9.55,1.37,-0.40
-9.50,1.88,-0.34
-9.56,1.23,-0.20
-9.46,1.19,-0.11
-9.71,1.11,0.12
-9.49,1.46,0.23
-9.59,1.27,-0.11
-9.88,1.07,-0.18
-9.56,1.20,-0.40
-9.69,1.31,-0.33
-9.52,1.53,-0.69
-9.58,1.02,-0.34
-9.62,1.85,-0.17
-9.74,1.48,-0.45
-9.58,1.62,-0.37
-9.62,1.81,-0.19
-9.62,0.80,0.00
-9.86,0.89,-0.11
-9.45,0.15,-0.41
-9.50,1.02,-0.12
-9.65,0.91,-0.36
-9.63,0.62,-0.56
-9.48,0.90,-0.56
-8.98,1.60,-0.45
-9.73,2.13,-0.51
-9.31,0.75,-0.67
-9.48,1.73,-1.21
-9.43,1.65,-1.11
-9.45,0.82,-0.68
-9.79,1.29,-0.89
-9.67,1.30,-0.72
-9.94,1.51,-0.72
-9.58,0.81,-1.03
-9.72,1.95,-0.78
-9.35,1.12,-0.61
-9.24,0.78,-0.74
-9.35,2.27,-0.31
-9.38,1.07,-0.58
-9.49,1.63,-0.71
-9.75,0.49,-0.57
-9.73,0.06,-0.86
-9.33,-0.80,-0.47
-9.23,0.63,0.67
-10.05,1.56,-0.01
-9.69,1.60,-0.11
-9.39,1.33,-0.07
-9.35,1.14,0.29
-9.71,1.22,-0.08
-9.35,1.36,-0.03
-9.81,1.14,-0.03
-9.53,1.27,0.12
-9.46,1.54,-0.08
-9.61,1.94,-0.08
-9.31,2.31,-0.11
-9.57,1.88,-0.14
-9.46,2.22,-0.40
-9.36,2.31,-0.09
-9.54,2.58,-0.18
-9.10,2.93,-0.78
-9.36,2.78,-0.44
-8.87,2.63,-0.59
-9.40,2.74,-0.39
-9.30,2.79,-0.48
-9.63,2.63,-0.38
-9.55,2.40,0.46
-9.36,1.78,1.20
-9.75,2.26,1.36
-9.47,1.82,1.63
-9.08,2.01,2.38
-9.31,1.92,3.45
-7.84,5.30,5.91
-7.81,4.41,4.32
-6.53,3.35,6.77
-3.60,5.70,6.30
-1.73,6.76,6.16
0.26,7.32,4.73
1.20,7.58,4.20
2.29,8.65,3.60
2.51,8.36,3.76
2.88,8.79,3.60
3.48,8.58,3.42
3.01,8.73,3.62
3.05,9.06,3.19
2.68,9.00,3.03
3.08,8.56,3.31
3.36,8.29,3.86
3.00,7.64,4.22
2.83,7.88,5.27
2.92,7.29,5.05
3.75,7.22,6.62
3.56,6.26,7.36
3.95,5.04,7.50
3.78,4.31,7.13
4.41,4.53,6.53
4.69,4.94,6.37
4.61,5.02,6.90
4.41,4.87,7.02
4.30,5.19,6.81
4.61,5.05,6.75
4.41,5.12,6.94
4.36,5.11,6.70
4.25,5.13,7.00
4.32,5.26,6.71
4.39,5.22,6.65
4.48,5.05,6.75
4.36,5.21,6.78
4.34,5.10,6.86
4.50,5.14,6.70
4.26,5.28,6.94
4.32,5.20,6.50
4.38,5.19,6.08
4.06,5.21,6.85
3.56,6.18,7.53
1.61,5.80,6.64
1.06,5.06,8.19
0.75,4.52,7.13
-0.19,6.02,5.27
-2.86,8.16,4.53
-4.82,9.24,2.78
-6.60,8.63,1.38
-6.93,7.24,-0.66
-6.87,7.74,-0.91
-7.94,3.94,-1.25
-9.02,4.44,-1.64
-8.94,3.86,-1.47
-9.02,2.59,-1.17
-10.21,2.36,-1.43
-9.72,1.40,-0.49
-9.53,1.22,-0.71
-9.56,1.16,-0.63
-9.56,1.73,-0.74
-9.44,1.60,-0.82
-9.57,1.58,-0.58
-9.56,1.73,-0.65
-9.52,1.67,0.05
-9.70,1.23,0.61
-9.40,1.36,0.68
-9.23,1.04,1.13
-9.59,1.20,2.10
-9.34,1.32,1.48
-9.01,2.30,1.49
-8.64,2.19,2.73
-9.03,2.43,2.62
-7.94,2.20,2.29
-8.38,2.36,3.24
-8.49,1.92,3.23
-8.81,1.46,3.80
-8.51,1.44,3.53
-8.64,1.79,4.41
-8.38,2.37,5.45
-7.08,3.30,5.55
-5.89,3.92,6.23
-3.72,5.28,6.79
-3.08,5.87,6.27
-1.31,7.12,5.82
-0.39,7.83,5.53
1.30,8.06,5.08
2.34,8.13,4.20
3.55,7.91,2.97
3.53,8.43,3.13
4.30,8.32,2.94
3.78,8.47,3.42
3.88,8.36,2.97
3.58,8.68,3.34
3.79,8.41,3.35
3.84,8.56,3.12
3.52,8.94,3.19
3.96,8.38,3.16
3.98,8.35,2.98
4.03,8.39,3.35
3.91,8.55,3.10
3.70,8.72,2.93
3.55,8.63,2.96
3.51,8.83,3.28
4.53,8.31,2.83
3.89,8.58,3.57
4.26,8.16,4.26
3.12,7.49,4.50
3.74,7.92,5.70
2.66,8.54,6.17
3.06,6.56,5.42
3.28,6.19,7.27
3.36,5.50,6.85
4.86,4.14,6.90
4.98,4.14,7.04
5.05,4.03,6.71
4.83,4.29,6.91
4.82,4.44,7.08
5.13,4.81,7.84
4.98,3.86,6.28
4.54,4.56,7.45
4.64,4.48,7.30
4.79,3.99,6.96
4.68,4.15,7.23
4.65,4.51,7.25
4.45,3.98,7.16
4.52,4.52,7.38
4.49,4.30,7.12
4.53,4.01,7.37
4.45,4.13,7.21
4.44,3.88,7.45
4.47,4.00,7.20
4.25,4.44,7.59
4.15,4.76,7.19
4.18,3.72,7.41
4.27,4.39,7.46
4.05,4.10,7.58
3.86,4.42,7.36
3.70,4.62,7.41
3.62,4.56,7.64
3.55,4.52,7.07
2.66,5.20,7.14
2.28,6.14,6.67
1.27,7.53,5.47
0.19,8.14,4.97
-0.55,9.24,3.66
-1.72,8.65,2.67
-3.76,8.66,1.21
-7.18,8.10,-0.25
-7.54,7.58,-0.26
-7.84,5.73,-1.58
-9.16,3.40,-1.81
-9.24,3.77,-2.27
-9.21,2.44,-1.08
-10.40,2.00,-0.45
-9.73,1.43,-0.80
-9.70,1.87,-0.44
-9.73,1.85,-0.73
-9.50,1.87,-0.57
-9.47,1.90,-0.54
-9.53,1.79,-0.37
-9.48,1.87,-0.47
-9.55,1.81,-0.54
-9.52,1.80,-0.46
-9.54,1.72,-0.32
-9.54,1.72,-0.47
-9.51,1.77,-0.47
-9.37,1.75,-0.28
-9.44,1.88,-0.54
-9.53,1.84,-0.66
-9.51,1.69,-0.57
-9.70,1.68,-0.64
-9.74,2.01,-0.74
-9.39,1.60,-0.29
-9.49,2.08,-0.48
-9.37,1.38,-0.22
-9.40,1.41,-0.19
-9.60,1.70,-0.36
-9.78,1.61,-0.16
-9.51,1.97,-0.56
-9.59,2.24,-0.55
-9.69,1.31,0.85
-9.44,1.89,0.89
-9.55,2.43,2.13
-9.35,3.06,0.32
-8.53,2.96,2.00
-8.40,3.09,1.25
-8.69,3.09,1.01
-8.69,2.48,2.56
-9.17,2.69,2.40
-9.13,2.20,2.90
-9.17,2.49,2.23
-9.09,2.13,1.88
-9.02,2.40,1.48
-8.72,2.70,2.23
-8.81,2.63,1.96
-8.91,2.45,2.08
-8.82,2.63,2.36
-9.03,2.56,2.51
-8.90,2.48,2.77
-9.05,2.72,3.01
-8.72,3.29,4.04
-7.43,3.97,5.32
-6.22,4.42,6.25
-5.06,5.38,6.79
-1.85,7.09,6.18
-0.77,7.79,5.49
0.68,7.99,5.06
2.01,7.27,4.20
2.88,7.88,4.09
3.17,7.89,3.53
3.70,8.24,4.05
3.52,8.19,3.74
3.28,8.28,3.92
3.18,8.61,3.90
3.46,8.32,3.83
3.28,8.31,3.85
3.24,8.47,3.76
3.22,8.54,3.84
3.24,8.41,3.85
3.29,8.54,3.92
3.41,8.56,3.83
3.13,8.43,4.08
3.39,8.49,3.59
3.26,8.41,4.03
3.34,7.47,4.44
2.69,7.78,5.09
3.72,7.93,6.24
2.62,5.33,6.27
3.32,6.51,6.52
3.07,5.38,6.11
3.89,5.76,7.27
3.79,5.84,6.62
4.68,4.92,6.12
4.82,4.50,7.20
4.51,4.53,7.25
4.40,3.98,7.12
4.09,5.14,7.28
4.10,4.71,7.07
4.11,4.72,7.12
4.36,4.86,7.08
4.24,4.68,7.05
4.33,4.87,7.09
4.16,4.68,7.17
4.25,4.73,7.31
4.18,4.64,7.34
4.18,4.66,7.08
4.29,4.65,7.14
4.22,4.85,7.36
4.26,4.84,7.00
4.26,4.84,7.14
4.11,4.92,7.00
4.26,4.88,7.04
4.14,4.93,7.22
4.19,4.87,7.18
4.19,4.94,7.06
4.18,4.83,7.21
4.19,4.77,7.10
4.20,4.64,7.16
4.03,4.82,7.05
4.06,4.82,7.12
4.09,4.91,7.18
4.19,4.72,7.03
4.14,4.75,7.15
4.17,4.92,7.07
4.13,4.86,7.13
4.08,4.98,6.98
4.14,6.19,4.95
0.26,3.71,7.32
0.10,0.78,12.07
0.17,2.42,9.38
0.40,3.03,8.55
0.44,2.99,9.05
0.40,3.29,8.63
0.50,3.32,8.57
0.67,3.28,8.54
0.05,3.51,8.48
-0.06,4.48,8.30
-0.68,5.09,7.48
-0.11,6.90,5.76
-2.04,7.27,3.81
-2.51,8.89,2.71
-6.32,7.95,1.02
-7.62,7.58,0.43
-8.14,6.00,-0.65
-8.96,4.96,-0.96
-9.69,3.05,-1.72
-9.17,1.36,-0.96
-9.80,1.47,-0.62
-9.63,2.09,-1.01
-9.58,1.65,-0.55
-9.43,1.89,-0.59
-9.38,1.83,-0.53
-9.56,1.75,-0.44
-9.46,1.71,-0.50
-9.54,1.84,-0.75
-9.69,1.59,-0.23
-9.42,1.11,0.37
-9.50,1.15,0.39
-9.89,1.86,1.08
-9.90,1.18,1.66
-9.31,1.65,1.19
-9.49,1.66,1.30
-9.09,2.23,0.91
-9.85,2.65,1.40
-8.60,2.33,1.48
-8.77,2.38,1.92
-9.54,2.19,2.00
-9.11,1.89,1.97
-9.21,1.57,2.56
-9.02,1.38,2.33
-9.15,1.76,2.59
-9.23,2.07,3.35
-9.44,1.77,3.71
-8.70,2.58,4.79
-7.48,4.56,5.29
-6.03,4.75,5.89
-3.44,6.36,5.79
-1.46,7.93,5.96
0.47,7.92,3.80
2.75,8.01,3.77
3.27,8.26,3.41
3.40,8.02,3.04
4.05,8.18,2.96
3.77,8.58,2.71
4.25,8.47,2.77
4.28,8.19,3.03
3.99,8.61,3.00
4.09,9.07,2.90
3.96,8.98,2.88
4.08,8.81,3.49
3.75,7.79,3.54
3.88,7.69,3.52
3.72,7.62,4.74
3.48,7.63,4.09
3.57,7.40,5.95
2.96,6.26,6.97
3.10,5.98,7.36
4.61,5.38,7.34
4.86,4.43,6.85
4.79,4.34,7.02
5.10,4.24,6.84
5.11,3.88,7.15
5.15,3.44,7.24
5.08,3.81,6.85
5.06,4.09,7.14
4.69,4.15,6.96
4.73,4.17,7.11
4.84,4.21,7.18
4.98,4.18,7.06
4.77,4.04,7.15
4.80,3.73,7.07
4.81,4.13,7.19
4.94,4.03,6.95
4.97,4.42,6.13
3.99,5.12,5.66
1.26,3.69,8.41
0.76,2.25,11.35
0.99,2.98,8.44
0.74,3.26,9.12
0.73,3.51,8.59
0.46,3.51,9.03
0.68,3.71,8.18
0.63,4.35,7.54
-0.33,4.54,7.52
-1.46,5.85,6.73
-2.36,6.80,4.18
-5.61,7.74,1.35
-7.24,8.73,0.76
-7.35,7.26,-1.05
-7.18,5.99,-1.37
-9.06,4.42,-1.44
-8.85,5.23,-1.69
-9.62,3.46,-2.37
-9.91,4.07,-1.42
-9.28,1.36,-1.35
-9.62,1.75,-1.47
-9.31,2.02,-1.29
-9.47,1.71,-1.25
-9.52,1.67,-1.21
-9.67,1.57,-1.30
-9.56,1.41,-1.08
-9.53,1.60,-1.12
-9.50,1.69,-1.16
-9.58,1.53,-0.97
-9.72,1.68,-0.77
-9.57,1.26,-1.06
-9.58,1.57,-1.08
-9.57,1.52,-1.08
-9.72,1.51,-1.01
-9.50,1.61,-1.05
-9.67,1.59,-1.11
-9.66,1.56,-1.07
-9.52,1.46,-1.01
-9.49,1.59,-1.13
-9.58,1.50,-1.07
-9.63,1.52,-1.08
-9.51,1.55,-0.96
-9.52,1.61,-1.01
-9.39,1.43,-0.99
-9.48,1.53,-1.05
-9.45,1.59,-1.05
-9.48,1.68,-1.08
-9.60,1.74,-1.03
-9.59,1.76,-1.13
-9.58,1.50,-0.88
-9.54,1.40,-0.89
-9.62,1.55,-1.00
-9.46,1.45,-1.00
-9.65,1.64,-0.81
-9.67,1.46,-0.71
-9.65,1.47,-0.83
-9.44,1.62,-1.00
-9.68,1.63,-1.00
-9.56,1.61,-1.00
-9.54,1.50,-0.84
-9.66,1.47,-0.90
-9.55,1.52,-0.94
-9.51,1.49,-0.88
-9.52,1.52,-0.79
-9.53,1.45,-0.91
-9.60,1.48,-1.00
-9.57,1.42,-0.80
-9.54,1.44,-0.84
-9.52,1.41,-0.86
-9.59,1.43,-0.88
-9.57,1.42,-0.81
-9.64,1.44,-0.86
-9.62,1.34,-0.92
-9.58,1.43,-0.82
-9.63,1.42,-0.77
-9.65,1.42,-0.97
-9.59,1.42,-0.89
-9.58,1.50,-0.82
-9.58,1.38,-0.78
-9.63,1.41,-0.82
-9.54,1.37,-0.86
-9.68,1.35,-0.87
-9.62,1.40,-0.87
-9.63,1.45,-0.83
-9.52,1.50,-0.93
-9.47,1.46,-0.93
-9.51,1.43,-0.94
-9.58,1.50,-0.87
-9.58,1.47,-0.90
-9.59,1.41,-0.85
-9.53,1.47,-0.88
-9.59,1.48,-0.82
-9.57,1.41,-0.79
-9.58,1.47,-0.85
-9.57,1.46,-0.72
-9.62,1.46,-0.72
-9.59,1.42,-0.79
-9.59,1.40,-0.77
-9.60,1.49,-0.87
-9.57,1.40,-0.83
-9.64,1.44,-0.81
-9.60,1.47,-0.81
-9.57,1.36,-0.81
-9.58,1.48,-0.84
-9.54,1.42,-0.80
-9.48,1.48,-0.92
-9.58,1.49,-0.79
-9.57,1.42,-0.86
-9.59,1.45,-0.88
-9.60,1.47,-0.88
-9.62,1.45,-0.79
-9.53,1.42,-0.87
-9.58,1.55,-0.83
-9.63,1.49,-0.82
-9.63,1.48,-0.85
-9.60,1.52,-0.81
-9.62,1.42,-0.87
-9.59,1.49,-0.86
-9.55,1.42,-0.80
-9.56,1.42,-0.78
-9.73,1.38,-0.66
-9.66,1.38,-0.82
-9.58,1.44,-0.76
-9.62,1.45,-0.86
-9.61,1.46,-0.78
-9.45,1.44,-0.80
-9.58,1.43,-0.79
-9.63,1.41,-0.77
-9.59,1.51,-0.77
-9.53,1.48,-0.78
-9.59,1.44,-0.76
-9.60,1.47,-0.73
-9.59,1.44,-0.81
-9.55,1.45,-0.81
-9.53,1.42,-0.79
-9.63,1.45,-0.71
-9.49,1.46,-0.80
-9.53,1.46,-0.76
-9.57,1.42,-0.79
-9.61,1.40,-0.83
-9.61,1.42,-0.74
-9.70,1.39,-0.71
-9.59,1.35,-0.83
-9.57,1.49,-0.82
-9.59,1.41,-0.78
-9.58,1.44,-0.79
-9.52,1.41,-0.84
-9.63,1.50,-0.77
-9.58,1.45,-0.82
-9.59,1.48,-0.87
-9.59,1.37,-0.72
-9.59,1.50,-0.78
-9.63,1.52,-0.83
-9.59,1.45,-0.85
-9.51,1.45,-0.79
-9.57,1.41,-0.79
-9.57,1.41,-0.80
-9.60,1.42,-0.79
-9.59,1.43,-0.83
-9.56,1.50,-0.82
-9.62,1.45,-0.88
-9.57,1.45,-0.88
-9.58,1.42,-0.79
-9.63,1.40,-0.81
-9.60,1.48,-0.86
-9.62,1.42,-0.87
-9.58,1.40,-0.81
-9.60,1.43,-0.89
-9.60,1.44,-0.85
-9.65,1.43,-0.80
-9.59,1.43,-0.89
-9.63,1.27,-0.68
-9.58,1.36,-0.81
-9.56,1.47,-0.77
-9.58,1.49,-0.82
-9.62,1.49,-0.76
-9.63,1.43,-0.76
-9.66,1.36,-0.76
-9.58,1.47,-0.83
-9.60,1.59,-0.98
-9.51,1.54,-0.98
-9.55,1.58,-1.10
-9.58,1.43,-0.98
-9.66,1.50,-0.88
-9.60,1.45,-0.97
-9.55,1.63,-0.93
-9.60,1.56,-1.01
-9.43,1.63,-1.09
-9.62,1.65,-0.96
-9.60,1.56,-0.79
-9.59,1.47,-0.95
-9.51,1.52,-0.91
-9.57,1.51,-1.02
-9.49,1.58,-1.05
-9.60,1.47,-1.03
-9.26,1.64,-0.91
-9.45,1.52,-1.01
-9.71,1.49,-1.01
-9.45,1.59,-1.00
-9.58,1.39,-0.98
-9.56,1.53,-1.06
-9.66,1.34,-1.00
-9.62,1.62,-0.93
-9.54,1.66,-0.97
-9.52,1.62,-1.07
-9.53,1.48,-1.05
-9.55,1.43,-1.13
-9.59,1.42,-1.08
-9.63,1.48,-0.88
-9.62,1.29,-0.91
-9.62,1.48,-0.91
-9.53,1.35,-1.00
-9.64,1.40,-0.92
-9.58,1.42,-0.91
-9.61,1.41,-0.90
-9.60,1.36,-0.88
-9.70,1.34,-0.88
-9.54,1.38,-0.92
-9.59,1.48,-0.97
-9.63,1.37,-0.86
-9.55,1.40,-0.90
-9.53,1.42,-0.95
-9.50,1.52,-0.87
-9.62,1.35,-0.81
-9.60,1.40,-0.87
-9.62,1.39,-0.89
-9.53,1.38,-0.93
-9.64,1.31,-0.90
-9.48,1.35,-0.93
-9.61,1.43,-1.01
-9.56,1.41,-0.95
-9.57,1.44,-0.91
-9.60,1.40,-0.90
-9.58,1.30,-0.94
-9.63,1.37,-0.96
-9.60,1.40,-0.91
-9.55,1.43,-0.84
-9.55,1.39,-0.93
-9.59,1.51,-0.88
-9.57,1.43,-0.83
-9.56,1.41,-0.87
-9.60,1.40,-0.93
-9.64,1.38,-0.87
-9.67,1.47,-0.98
-9.60,1.43,-0.94
-9.54,1.38,-0.99
-9.60,1.37,-0.92
-9.57,1.41,-0.90
-9.61,1.39,-0.88
-9.66,1.29,-0.91
-9.60,1.39,-0.92
-9.59,1.36,-0.85
-9.57,1.36,-0.91
-9.60,1.43,-0.96
-9.64,1.46,-0.93
-9.55,1.47,-1.00
-9.52,1.46,-0.99
-9.60,1.41,-0.90
-9.56,1.41,-1.01
-9.62,1.37,-0.92
-9.62,1.37,-0.91
-9.60,1.42,-0.99
-9.54,1.40,-0.96
-9.56,1.50,-0.98
-9.59,1.39,-0.91
-9.52,1.43,-0.96
-9.62,1.43,-0.91
-9.52,1.49,-0.97
-9.60,1.39,-0.95
-9.43,1.52,-0.94
-9.62,1.40,-0.87
-9.57,1.43,-0.95
-9.51,1.47,-0.98
-9.53,1.43,-0.93
-9.58,1.38,-0.92
-9.57,1.40,-0.83
-9.64,1.49,-0.88
-9.54,1.44,-0.91
-9.64,1.39,-0.82
-9.62,1.45,-0.87
-9.58,1.52,-0.93
-9.62,1.41,-0.86
-9.57,1.38,-0.91
-9.60,1.29,-0.91
-9.58,1.34,-0.84
-9.58,1.44,-0.88
-9.59,1.37,-0.91
-9.59,1.48,-0.95
-9.56,1.49,-0.88
-9.53,1.45,-0.89
-9.60,1.42,-0.89
-9.61,1.39,-0.89
-9.52,1.45,-0.90
-9.53,1.33,-0.79
-9.54,1.40,-0.88
-9.62,1.45,-0.92
-9.66,1.35,-0.90
-9.62,1.36,-0.89
-9.59,1.38,-0.89
-9.55,1.43,-0.99
-9.62,1.36,-0.85
-9.57,1.38,-0.89
-9.59,1.38,-0.91
-9.51,1.47,-0.97
-9.58,1.43,-0.98
-9.57,1.41,-0.94
-9.52,1.41,-0.93
-9.60,1.39,-0.96
-9.54,1.37,-0.87
-9.55,1.45,-0.97
-9.55,1.39,-0.96
-9.61,1.37,-1.05
-9.59,1.42,-0.97
-9.63,1.36,-0.98
-9.62,1.36,-0.92
-9.57,1.36,-0.99
-9.62,1.42,-1.03
-9.60,1.39,-0.98
-9.55,1.40,-1.02
-9.57,1.41,-0.94
-9.47,1.44,-0.99
-9.54,1.39,-0.91
-9.62,1.35,-0.95
-9.55,1.36,-0.97
-9.60,1.38,-0.89
-9.62,1.43,-0.92
-9.55,1.35,-0.95
-9.59,1.48,-0.98
-9.57,1.40,-0.91
-9.59,1.43,-0.87
-9.52,1.43,-0.97
-9.60,1.38,-0.93
-9.57,1.40,-0.99
-9.57,1.36,-1.01
-9.57,1.40,-0.93
-9.57,1.43,-0.98
-9.51,1.49,-0.93
-9.57,1.38,-0.89
-9.55,1.42,-0.98
-9.58,1.39,-1.02
-9.57,1.39,-0.95
-9.61,1.42,-0.93
-9.62,1.38,-0.97
-9.53,1.46,-0.99
-9.56,1.36,-0.91
-9.59,1.41,-0.98
-9.54,1.44,-1.00
-9.61,1.44,-0.98
-9.64,1.43,-1.00
-9.60,1.42,-0.90
-9.59,1.42,-0.94
-9.59,1.40,-0.91
-9.61,1.41,-0.89
-9.60,1.38,-0.95
-9.57,1.44,-0.97
-9.59,1.37,-0.94
-9.58,1.38,-0.96
-9.48,1.46,-1.00
-9.57,1.36,-0.96
-9.58,1.40,-0.90
-9.57,1.43,-1.01
-9.60,1.36,-1.00
-9.55,1.42,-0.98
-9.70,1.36,-0.87
-9.59,1.37,-1.00
-9.55,1.39,-0.91
-9.59,1.48,-1.03
-9.59,1.40,-1.01
-9.60,1.44,-1.01
-9.53,1.44,-0.87
-9.64,1.34,-0.93
-9.58,1.34,-0.94
-9.61,1.41,-0.91
-9.54,1.48,-0.95
-9.65,1.38,-0.96
-9.58,1.39,-0.96
-9.59,1.46,-0.96
-9.58,1.32,-0.91
-9.58,1.37,-0.87
-9.54,1.43,-0.95
-9.55,1.42,-0.93
-9.62,1.47,-0.92
-9.60,1.41,-0.95
-9.56,1.37,-0.97
-9.52,1.38,-0.94
-9.48,1.42,-1.00
-9.61,1.36,-1.01
-9.57,1.40,-1.03
-9.57,1.37,-0.97
-9.55,1.45,-0.99
-9.58,1.44,-0.96
-9.66,1.39,-0.93
-9.63,1.36,-1.06
-9.58,1.38,-0.99
-9.52,1.39,-0.94
-9.53,1.44,-1.01
-9.59,1.41,-0.94
-9.50,1.42,-0.99
-9.60,1.40,-0.91
-9.55,1.43,-0.92
-9.62,1.38,-0.95
-9.54,1.40,-1.00
