aX,aY,aZ 
1.34,9.78,1.59
1.57,9.71,1.64
1.22,9.67,1.54
1.26,10.63,1.66
1.13,9.90,1.54
1.04,9.96,1.54
1.17,10.22,1.61
0.91,9.90,1.56
1.05,9.34,1.25
1.10,9.88,1.47
1.07,10.18,1.12
1.04,10.09,1.14
0.90,9.62,1.26
1.26,10.01,1.22
1.10,9.92,1.17
1.16,9.89,1.07
1.21,10.08,1.10
1.28,10.16,1.25
1.15,10.21,1.29
1.30,9.75,1.25
1.31,10.09,1.34
1.23,9.76,1.58
1.34,9.77,1.27
1.55,10.14,1.91
1.60,9.46,2.02
1.69,9.41,2.00
1.77,10.19,1.93
1.07,9.14,1.75
1.80,9.87,1.85
1.70,9.75,1.70
1.99,10.66,1.84
1.55,9.95,1.96
1.71,9.64,1.68
1.69,9.57,1.45
1.75,10.08,1.71
1.66,9.49,1.81
1.65,9.82,1.93
1.64,9.27,1.67
1.70,9.81,1.84
1.77,10.13,1.63
1.50,9.62,1.55
1.92,10.24,1.58
1.74,9.46,1.58
1.53,10.01,1.52
1.46,9.28,1.55
1.68,9.22,1.76
1.45,9.54,1.67
1.64,9.62,1.70
1.63,9.19,1.55
1.94,10.00,1.71
1.64,10.17,1.63
1.74,10.03,1.86
1.49,9.52,1.50
1.66,9.94,1.70
1.73,9.86,1.57
1.80,9.36,1.56
1.70,9.71,1.53
2.11,10.16,1.57
1.70,9.81,1.69
1.66,9.20,1.49
1.79,9.96,1.42
2.04,10.12,1.54
1.87,10.20,1.52
1.89,10.06,1.48
1.80,9.75,1.58
1.70,10.06,1.64
1.63,9.57,1.43
2.12,10.41,1.49
1.80,9.56,1.47
1.79,9.89,1.40
1.61,9.59,1.54
1.94,9.34,1.39
1.94,9.45,1.34
1.67,9.16,1.51
1.70,9.31,1.42
1.58,9.39,1.49
2.04,9.61,1.58
1.75,9.36,1.44
2.08,9.85,1.52
1.90,10.07,1.58
2.05,10.30,1.47
2.46,10.43,1.47
2.07,10.11,1.49
1.74,9.25,1.40
1.98,9.21,1.32
2.40,9.92,1.28
2.42,10.15,1.60
1.98,9.80,1.29
1.93,9.87,1.45
2.00,9.21,1.30
2.08,9.86,1.31
2.08,9.29,1.43
2.07,10.04,1.27
2.08,9.84,1.39
2.05,9.73,1.13
1.80,9.48,1.34
2.14,10.14,1.30
2.05,10.12,1.28
2.19,10.34,1.57
1.91,9.92,1.48
2.00,9.75,1.17
2.17,9.61,1.14
2.02,9.63,1.12
2.11,10.03,1.15
2.02,9.77,1.20
2.37,10.13,1.15
2.28,10.41,1.36
1.84,9.28,1.36
1.62,9.28,1.29
1.88,9.79,1.30
2.15,10.62,1.21
1.74,9.37,1.25
2.18,10.03,1.33
2.13,10.15,1.31
2.03,9.19,1.17
2.35,10.27,1.29
2.12,9.53,1.16
2.10,9.39,1.05
1.91,9.78,1.33
2.22,10.05,1.13
1.97,10.01,1.24
2.01,10.21,1.19
2.12,10.07,1.08
2.02,10.07,1.15
2.27,10.28,1.04
1.75,9.38,1.08
2.04,10.16,0.99
1.90,9.31,1.09
2.13,9.72,1.06
2.20,9.72,1.07
2.10,9.86,1.06
2.04,9.62,1.09
2.30,10.54,1.08
2.05,9.42,1.09
1.72,9.13,1.12
1.99,9.36,1.03
2.01,10.11,0.99
2.21,10.07,0.96
1.75,9.24,0.94
1.94,9.65,1.13
2.25,10.30,1.08
2.16,10.07,1.00
1.77,9.31,0.95
1.86,8.82,0.79
1.95,10.32,1.06
1.85,9.16,0.93
1.68,9.04,0.91
1.92,9.93,1.13
2.39,10.63,0.99
1.83,9.29,1.02
2.29,9.88,0.90
2.09,10.79,1.10
2.10,10.16,1.07
2.21,9.44,1.13
2.24,9.36,1.02
1.90,10.16,1.10
2.14,9.73,0.98
2.40,10.30,0.83
1.87,9.85,0.79
1.80,9.34,0.81
2.16,9.79,0.89
1.87,9.64,0.85
2.17,9.77,0.96
1.75,9.06,0.91
1.95,10.04,0.88
1.92,10.08,0.93
2.14,9.92,0.89
1.92,9.59,0.73
1.92,9.54,0.95
1.99,9.93,1.07
1.86,9.53,0.91
2.01,10.39,0.99
2.07,9.75,1.04
2.16,10.15,0.90
2.01,9.83,0.93
1.86,9.69,0.92
2.13,10.19,0.88
1.92,9.72,0.85
1.72,9.60,0.76
2.01,9.93,0.90
2.08,10.38,0.77
1.84,10.03,0.86
1.93,9.70,0.75
2.02,10.37,1.04
1.87,10.13,0.83
2.00,10.28,0.91
2.03,10.10,1.05
1.73,9.86,0.82
1.68,9.51,0.56
1.74,9.83,0.83
1.56,10.23,0.74
1.67,9.67,0.78
1.64,10.14,0.75
1.58,10.53,0.85
1.06,9.91,0.90
1.06,9.86,0.91
1.02,9.92,0.90
0.89,9.55,0.92
1.03,9.85,0.76
1.16,10.41,0.80
1.42,10.47,0.77
1.16,10.30,0.74
1.05,10.20,0.66
1.00,10.07,0.78
1.16,10.16,0.75
1.14,9.87,0.80
0.83,9.91,0.83
1.08,9.65,0.69
1.19,10.38,0.78
1.33,10.32,0.76
1.17,10.00,0.71
1.33,10.44,0.85
0.97,9.99,0.68
1.02,9.72,0.60
1.27,9.84,0.62
1.10,10.13,0.82
1.14,9.67,0.74
1.18,9.71,0.85
1.05,9.70,0.73
1.13,9.74,0.61
1.11,9.83,0.55
0.99,9.62,0.81
0.87,10.21,0.75
1.14,9.90,0.62
1.19,9.80,0.61
1.20,9.87,0.63
1.29,9.95,0.58
1.16,9.84,0.60
1.19,10.09,0.57
1.09,10.05,0.63
1.13,10.18,0.60
1.05,9.94,0.59
1.34,10.20,0.53
1.31,9.83,0.59
1.19,9.77,0.58
1.05,9.88,0.50
0.96,10.06,0.52
1.18,10.00,0.52
1.29,9.94,0.54
1.41,10.36,0.66
1.30,10.30,0.53
1.48,9.77,0.65
1.39,10.09,0.56
1.58,10.57,-0.12
1.34,10.41,0.57
1.52,10.26,0.43
1.32,10.03,0.57
1.24,9.87,0.29
1.19,9.77,0.16
0.84,9.37,-0.00
1.10,9.83,0.11
1.11,10.07,0.07
1.22,10.14,0.14
1.10,9.53,0.32
1.16,10.10,0.11
1.14,10.01,0.23
1.42,9.92,-0.35
1.01,10.06,0.15
1.26,10.13,0.08
1.23,10.27,0.15
1.15,9.96,0.11
1.17,9.74,0.13
1.30,10.39,0.26
1.22,9.85,0.07
1.22,10.02,0.28
1.17,9.82,0.18
1.33,10.34,0.13
1.09,9.86,0.06
1.31,9.81,0.22
0.87,9.49,0.13
1.22,10.55,0.35
0.88,10.59,0.43
1.51,9.80,0.24
1.60,9.60,0.51
1.67,11.43,0.36
1.46,10.31,0.29
1.06,10.29,-0.02
1.16,9.84,-0.01
1.03,10.39,0.05
0.96,10.43,0.03
1.19,10.23,-0.13
0.85,9.73,0.06
1.39,10.66,-0.02
1.44,10.54,-0.21
0.50,10.43,-0.22
1.25,10.28,-0.03
0.96,10.43,0.10
0.76,10.23,-0.02
0.78,10.29,-0.39
0.66,9.99,-0.14
1.37,9.61,-0.15
1.10,10.02,0.29
1.07,9.74,-0.15
0.96,10.25,0.13
0.82,10.26,-0.11
1.04,9.89,-0.33
0.93,9.50,-0.06
0.91,10.10,0.17
1.15,10.47,-0.06
1.16,10.54,-0.18
0.69,9.88,-0.08
1.06,9.76,-0.03
0.72,10.19,-0.04
1.11,10.30,-0.07
1.05,10.36,-0.03
0.95,10.30,-0.01
1.17,10.26,0.16
1.14,10.08,0.10
1.07,10.26,0.18
0.90,9.92,-0.02
1.08,10.50,0.02
1.29,10.25,0.08
1.06,10.50,0.25
1.08,10.06,0.12
0.98,9.98,-0.11
1.14,10.35,-0.04
1.06,10.36,0.07
0.92,9.66,-0.02
0.82,9.68,-0.12
0.81,9.78,0.02
1.03,9.68,-0.14
1.28,10.19,0.06
1.11,10.22,0.17
0.92,9.76,0.15
0.95,10.07,0.04
1.21,10.17,0.08
0.95,10.25,0.19
1.02,10.04,0.07
1.07,9.89,-0.03
0.87,9.73,0.05
1.02,10.18,0.07
0.98,10.10,0.10
1.09,10.37,0.13
1.08,10.12,0.06
1.02,10.02,0.00
1.26,10.19,-0.09
1.14,10.19,0.12
1.10,10.21,0.14
0.91,9.98,0.03
1.06,10.22,0.22
1.18,10.08,0.12
1.09,9.90,-0.09
1.07,10.00,-0.08
1.12,10.12,0.14
1.14,10.13,0.14
0.88,9.87,0.05
0.94,9.84,0.23
1.08,10.10,0.17
1.24,10.35,0.23
1.14,10.27,0.19
1.13,10.00,0.12
1.08,10.27,0.07
1.02,10.05,0.14
1.24,10.27,0.04
0.93,10.08,0.20
1.28,10.41,0.11
1.37,10.23,0.01
1.27,9.78,0.17
1.08,10.11,0.18
1.30,10.42,0.24
1.31,10.63,0.10
1.23,10.21,-0.02
0.94,10.18,0.01
1.01,9.77,-0.14
0.74,9.86,0.07
1.15,10.27,-0.01
0.89,9.85,0.14
0.62,9.98,0.14
-0.08,9.94,-0.11
-0.85,9.92,-0.04
-1.68,9.98,0.07
-3.19,9.41,0.48
-3.22,8.98,0.24
-4.40,9.10,0.75
-6.15,7.86,1.02
-6.89,6.79,1.64
-7.25,6.25,1.07
-7.77,5.61,1.44
-8.79,4.70,1.35
-8.60,4.28,0.57
-9.15,3.06,0.10
-9.63,2.46,-0.25
-9.50,2.07,-0.31
-9.80,1.91,-0.36
-9.55,1.15,-0.53
-9.69,2.35,-0.76
-10.03,1.92,-0.36
-9.26,2.05,-0.27
-9.25,2.33,-0.34
-9.43,1.79,-0.64
-10.31,0.80,-1.40
-9.67,0.94,-1.86
-10.09,2.11,-1.24
-8.98,0.69,-1.94
-8.89,2.40,-1.13
-8.90,1.47,-0.54
-10.34,1.57,-0.23
-9.62,1.84,-0.47
-9.70,2.02,-1.07
-9.34,1.26,-1.05
-9.76,1.15,-1.30
-9.14,3.03,-1.25
-9.81,1.72,-1.21
-9.64,2.44,-1.10
-9.61,1.74,-1.04
-9.30,2.34,-0.83
-9.51,2.05,-0.99
-9.52,2.35,-0.60
-9.58,2.04,-0.74
-9.44,2.11,-0.71
-9.55,1.99,-0.85
-9.57,1.94,-0.85
-9.48,1.76,-0.57
-9.49,1.98,-0.85
-9.57,2.13,-0.77
-9.63,1.92,-0.95
-9.49,2.26,-0.75
-9.63,2.32,-0.82
-9.54,1.90,-0.78
-9.61,2.05,-0.84
-9.42,1.88,-0.88
-9.33,2.03,-0.95
-9.44,2.31,-0.81
-9.63,1.99,-0.87
-9.29,2.29,-0.91
-9.60,1.94,-0.77
-9.34,1.98,-0.76
-9.70,2.28,-0.78
-9.43,2.19,-0.68
-9.55,1.81,-0.86
-9.57,2.05,-0.79
-9.49,2.17,-0.92
-9.25,2.19,-0.85
-9.55,2.32,-0.83
-9.56,2.16,-0.88
-9.53,2.05,-0.78
-9.35,2.12,-1.00
-9.49,2.04,-0.80
-9.65,1.88,-0.88
-9.53,2.07,-0.82
-9.43,2.02,-0.90
-9.58,1.98,-0.74
-9.44,1.99,-0.86
-9.52,1.94,-0.92
-9.62,1.99,-0.79
-9.53,2.15,-0.81
-9.57,2.10,-0.96
-9.59,1.90,-0.90
-9.59,2.27,-0.92
-9.64,1.46,-0.79
-9.27,2.60,-0.74
-9.62,1.69,-1.04
-9.42,2.35,-0.83
-9.51,2.18,-0.82
-9.56,2.00,-0.87
-9.50,1.93,-0.97
-9.42,2.02,-0.99
-9.52,1.99,-0.99
-9.42,2.03,-1.05
-9.54,2.14,-1.17
-9.44,2.08,-1.10
-9.33,1.91,-1.05
-9.48,1.98,-1.13
-9.58,1.94,-0.82
-9.51,1.98,-0.90
-9.66,1.92,-0.87
-9.50,1.98,-0.93
-9.52,2.07,-0.81
-9.49,1.93,-0.95
-9.47,2.01,-0.72
-9.57,1.73,-1.03
-9.48,1.90,-0.78
-9.59,2.11,-0.82
-9.53,1.96,-0.93
-9.47,2.11,-0.92
-9.51,1.85,-0.79
-9.71,2.19,-1.12
-9.47,1.88,-0.88
-9.52,2.18,-0.85
-9.57,1.78,-1.05
-9.46,1.90,-0.87
-9.54,2.09,-0.94
-9.52,2.14,-0.91
-9.59,1.91,-0.91
-9.71,2.00,-0.93
-9.47,2.00,-1.03
-9.43,1.97,-0.93
-9.54,1.90,-0.71
-9.58,1.94,-0.91
-9.49,1.97,-1.00
-9.48,1.84,-0.96
-9.68,1.77,-1.03
-9.63,2.02,-0.87
-9.36,2.07,-1.06
-9.49,1.92,-1.01
-9.48,1.84,-0.96
-9.40,2.01,-1.18
-9.64,1.90,-0.96
-9.46,1.94,-0.94
-9.52,2.09,-0.87
-9.53,1.98,-1.02
-9.57,1.96,-0.85
-9.68,1.73,-0.97
-9.61,1.86,-1.02
-9.48,1.93,-1.09
-9.46,1.99,-0.98
-9.50,2.01,-0.90
-9.46,2.14,-1.07
-9.46,1.84,-0.79
-9.54,1.70,-1.00
-9.49,2.00,-0.89
-9.53,1.71,-0.91
-9.57,1.97,-1.03
-9.54,2.14,-0.91
-9.74,1.65,-0.80
-9.40,2.19,-0.93
-9.54,1.92,-0.80
-9.68,1.97,-1.02
-9.51,1.48,-0.78
-9.02,1.74,-0.85
-9.50,1.77,-0.97
-9.52,1.67,-1.00
-9.56,2.17,-0.86
-9.48,2.02,-0.67
-9.28,1.74,-0.90
-9.51,1.56,-0.83
-9.61,1.90,-0.71
-9.57,1.77,-0.74
-9.73,1.91,-0.62
-9.53,1.97,-0.75
-9.68,1.79,-0.88
-9.60,1.76,-0.61
-9.59,1.66,-0.78
-9.57,1.97,-0.66
-9.54,1.79,-0.80
-9.44,1.82,-0.72
-9.63,1.53,-0.81
-9.60,1.84,-0.90
-9.49,1.59,-0.73
-9.55,1.78,-0.90
-9.69,1.73,-0.79
-9.51,2.02,-0.72
-9.62,1.76,-0.71
-9.37,1.99,-0.87
-9.72,1.61,-0.75
-9.58,1.83,-0.78
-9.55,1.67,-0.72
-9.63,1.64,-0.85
-9.51,1.81,-0.79
-9.47,1.82,-0.95
-9.41,1.83,-1.07
-9.52,2.04,-0.74
-9.51,1.88,-1.00
-9.61,1.78,-0.88
-9.47,1.84,-0.95
-9.55,2.05,-0.87
-9.45,2.07,-0.93
-9.60,1.65,-0.84
-9.56,2.08,-0.88
-9.53,1.60,-0.93
-9.64,1.97,-0.74
-9.46,1.90,-0.97
-9.60,1.79,-0.82
-9.48,1.87,-0.82
-9.62,1.87,-0.77
-9.57,1.77,-1.01
-9.57,1.74,-0.97
-9.58,1.91,-0.97
-9.63,1.94,-0.96
-9.63,1.92,-0.70
-9.62,2.02,-0.88
-9.51,1.92,-0.96
-9.50,1.96,-0.97
-9.55,1.84,-0.81
-9.55,1.79,-0.91
-9.44,2.04,-0.88
-9.50,1.88,-0.97
-9.57,1.90,-0.91
-9.62,1.98,-0.81
-9.47,2.03,-0.93
-9.55,1.90,-0.82
-9.49,2.01,-0.92
-9.51,1.77,-0.80
-9.50,1.96,-0.98
-9.53,1.97,-0.96
-9.40,1.92,-1.00
-9.60,1.91,-0.96
-9.55,1.77,-0.89
-9.55,1.79,-0.87
-9.48,1.79,-0.84
-9.46,1.93,-0.88
-9.62,1.83,-0.77
-9.56,1.92,-0.80
-9.52,1.93,-0.82
-9.65,1.79,-0.89
-9.50,1.99,-0.75
-9.65,1.78,-0.99
-9.63,1.80,-0.97
-9.62,1.72,-0.94
-9.50,1.84,-0.81
-9.54,2.01,-0.72
-9.55,1.77,-0.96
-9.51,1.81,-0.84
-9.49,2.03,-0.88
-9.52,1.79,-0.88
-9.59,1.79,-0.94
-9.64,1.75,-0.89
-9.51,2.14,-0.83
-9.60,1.96,-0.86
-9.64,1.89,-0.88
-9.82,1.76,-0.88
-9.61,1.62,-0.73
-9.26,1.99,-0.83
-9.67,1.78,-0.73
-9.48,1.75,-1.04
-9.65,1.78,-0.89
-9.51,1.92,-0.70
-9.65,1.97,-0.82
-9.56,1.70,-0.82
-9.50,1.94,-0.88
-9.67,1.76,-0.81
-9.46,1.94,-0.85
-9.51,1.71,-0.87
-9.65,1.60,-0.92
-9.36,2.01,-0.99
-9.51,1.86,-0.83
-9.48,1.81,-0.90
-9.44,1.78,-0.87
-9.62,1.69,-0.79
-9.44,2.02,-0.79
-9.58,1.83,-0.92
-9.59,1.95,-0.93
-9.62,1.76,-0.84
-9.44,1.96,-0.81
-9.57,1.55,-0.82
-9.43,2.08,-0.96
-9.26,3.01,-0.89
-9.13,2.45,-0.99
-9.27,2.53,-0.99
-9.62,2.00,-1.02
-9.49,2.03,-1.03
-9.48,2.10,-1.07
-9.59,2.08,-1.13
-9.49,2.29,-1.07
-9.36,2.23,-1.04
-9.53,1.92,-1.07
-9.63,2.21,-1.03
-9.39,2.15,-0.88
-9.42,1.89,-1.06
-9.53,2.04,-1.03
-9.19,1.98,-1.04
-9.60,2.06,-1.01
-9.50,2.15,-0.91
-9.63,1.87,-0.95
-9.52,1.99,-1.01
-9.47,1.99,-1.03
-9.62,2.03,-1.02
-9.57,2.02,-0.77
-9.42,2.09,-1.00
-9.49,2.17,-0.96
-9.45,2.03,-0.94
-9.54,1.92,-0.91
-9.49,2.13,-0.91
-9.29,2.14,-0.98
-9.42,1.98,-0.90
-9.57,2.01,-0.92
-9.39,2.13,-0.92
-9.51,1.88,-1.03
-9.43,2.05,-0.99
-9.49,1.97,-0.91
-9.57,1.87,-0.87
-9.37,2.24,-0.99
-9.53,1.93,-0.93
-9.46,1.94,-0.95
-9.54,2.07,-0.81
-9.37,2.08,-0.92
-9.58,2.14,-0.91
-9.53,2.04,-0.96
-9.56,2.15,-0.96
-9.78,1.79,-0.90
-9.37,1.91,-0.76
-9.64,1.97,-0.73
-9.07,2.24,-1.16
-9.32,1.72,-0.84
-9.85,1.86,-0.82
-9.35,1.78,-0.96
-9.35,2.42,-1.23
-9.38,1.89,-0.92
-9.81,2.06,-1.00
-9.38,2.41,-1.33
-9.68,2.26,-1.13
-9.26,2.48,-0.90
-9.03,2.54,-1.06
-9.52,2.77,-1.01
-9.33,2.09,-1.15
-9.32,2.05,-0.99
-9.69,2.20,-0.92
-9.46,1.73,-1.17
-9.44,2.16,-1.14
-9.61,2.31,-1.42
-9.52,2.15,-1.13
-9.38,1.98,-1.00
-9.45,2.60,-1.02
-9.64,1.85,-1.15
-9.41,2.30,-0.99
-9.54,2.26,-0.83
-9.59,2.25,-1.02
-9.40,2.29,-0.91
-9.36,2.28,-0.93
-9.68,2.24,-0.80
-9.38,2.40,-0.23
-9.33,2.30,-0.30
-9.36,2.66,-0.35
-9.21,3.71,-0.23
-9.36,3.56,-0.13
-8.85,4.38,0.44
-8.65,2.72,0.43
-8.63,2.37,-0.28
-9.04,3.84,1.25
-8.64,3.87,0.84
-9.32,4.59,1.00
-8.33,3.55,0.33
-9.05,2.89,-0.11
-9.63,3.21,-0.25
-9.04,2.44,0.46
-9.13,3.49,0.27
-9.10,3.27,0.07
-8.69,3.28,0.62
-8.99,3.18,0.79
-8.77,3.97,0.73
-9.23,3.39,0.80
-8.38,4.58,1.12
-8.38,5.38,1.68
-8.72,5.65,1.61
-7.58,7.29,1.85
-7.12,7.24,2.39
-5.50,7.31,2.69
-4.45,8.53,3.15
-3.52,8.70,3.22
-2.74,8.88,3.65
-1.69,9.04,4.08
0.79,7.89,4.84
2.12,8.56,4.62
3.19,7.40,5.02
2.20,6.29,5.04
3.29,6.31,5.43
3.93,5.72,4.82
4.32,7.42,5.40
4.60,6.22,4.24
4.34,6.93,4.50
4.00,7.44,4.75
4.37,7.92,4.58
4.36,7.72,3.86
4.10,6.95,4.05
3.82,6.63,3.66
4.11,9.11,3.88
3.37,8.44,3.11
2.50,10.21,2.84
2.31,8.88,2.72
2.47,9.24,2.49
2.04,9.22,2.26
1.55,8.16,2.22
2.02,10.24,2.18
3.30,10.04,1.46
2.55,9.20,1.35
1.96,9.58,1.09
2.22,9.86,1.49
1.82,9.35,1.61
1.95,9.35,1.49
1.79,9.34,1.66
2.25,9.96,1.69
1.77,10.11,1.84
2.09,9.52,1.74
1.75,9.20,1.43
1.54,8.72,1.52
1.92,9.47,1.75
2.11,9.99,1.33
1.98,9.47,1.43
2.26,10.03,1.30
2.22,9.92,1.35
1.94,9.37,1.47
2.23,9.44,1.43
2.37,9.41,1.39
2.38,10.55,1.62
2.17,9.13,1.37
1.93,9.58,0.70
2.49,10.60,0.93
2.42,9.67,0.11
2.04,9.69,0.42
2.15,10.23,0.98
2.50,10.98,0.46
1.97,9.56,0.27
2.04,9.65,0.48
2.05,10.57,0.62
1.99,9.60,0.32
1.70,9.07,0.34
2.04,10.47,0.58
2.42,10.59,0.66
1.94,10.34,0.26
1.89,10.48,0.05
1.61,10.07,-0.20
-0.07,9.22,-0.14
-1.07,9.51,0.19
-1.43,10.36,0.18
-3.85,9.53,0.63
-4.71,8.28,0.72
-5.90,7.92,1.45
-7.18,7.08,0.64
-7.55,6.59,0.97
-9.33,4.51,0.55
-8.24,4.94,0.31
-9.16,3.47,-0.79
-8.82,3.29,-0.46
-9.82,2.23,-0.41
-9.60,1.77,-0.75
-9.34,2.01,-0.48
-9.32,2.81,-0.01
-9.38,2.36,-0.12
-9.36,2.56,0.45
-8.95,2.59,-0.29
-9.62,2.90,-0.30
-9.23,2.22,-0.28
-9.58,2.49,0.15
-9.36,3.32,-0.34
-8.90,2.72,-0.29
-9.73,2.85,-0.17
-8.93,3.64,0.31
-8.73,2.92,-0.12
-9.57,3.03,0.08
-9.51,2.11,-0.14
-9.29,2.92,-0.12
-9.28,2.54,-0.05
-9.27,2.94,-0.27
-10.06,3.61,-0.45
-9.04,5.09,0.67
-9.34,1.96,-0.89
-9.18,3.34,0.81
-9.13,4.06,0.22
-8.94,3.78,-0.06
-9.32,2.66,-0.09
-8.81,5.79,0.07
-9.09,3.20,0.23
-9.00,4.24,0.41
-8.97,4.60,1.12
-7.90,6.08,1.20
-7.11,7.62,1.28
-6.87,7.37,1.65
-5.44,8.61,2.22
-3.92,8.37,3.04
-3.15,9.30,3.64
-1.98,8.90,3.85
-0.75,8.28,4.27
0.59,7.92,4.19
1.74,8.39,4.76
3.00,8.25,4.85
3.88,7.28,4.74
3.51,6.73,4.71
4.24,7.81,4.81
4.10,7.21,4.82
3.84,7.42,5.01
3.73,7.54,4.65
4.00,7.81,4.47
3.64,7.62,3.38
4.28,8.10,4.61
3.35,8.09,3.75
3.80,8.27,3.49
2.72,8.91,2.54
3.51,9.16,2.94
1.39,9.16,2.12
2.15,8.83,2.19
2.23,10.64,2.04
2.09,9.35,1.72
1.90,9.78,1.33
2.28,10.11,1.76
1.96,9.53,1.90
2.53,10.01,1.52
1.81,9.39,1.51
1.50,9.43,1.48
1.80,9.56,1.40
1.75,9.60,1.45
2.02,9.92,1.52
1.77,9.67,1.57
1.80,8.79,1.44
2.12,9.44,1.63
1.67,10.03,1.64
1.93,9.57,1.51
1.62,9.38,1.51
2.23,9.80,1.60
1.89,10.17,1.52
1.88,9.48,1.58
1.88,9.35,1.29
1.80,9.74,1.63
2.08,9.65,1.51
1.89,9.17,1.19
1.33,9.81,1.63
2.22,9.97,1.44
2.01,9.44,1.46
1.92,10.41,1.55
1.90,9.37,1.36
2.10,9.62,1.58
1.93,10.05,1.50
2.06,10.01,1.48
2.24,10.00,1.28
1.92,9.69,1.22
1.72,9.04,1.11
2.16,9.87,1.15
1.73,9.58,1.23
2.03,9.63,1.13
1.92,9.90,0.80
1.83,10.31,0.45
1.55,10.28,1.08
1.86,9.63,0.62
1.70,10.00,0.81
1.81,10.98,0.76
1.70,9.94,1.02
1.95,10.35,0.81
1.76,10.11,0.68
1.68,10.06,0.70
1.54,10.04,1.01
1.34,9.11,0.90
-0.15,10.48,1.10
-1.95,9.44,0.74
-2.02,9.54,0.69
-5.28,8.55,0.93
-5.95,8.70,0.58
-6.07,8.76,1.73
-6.82,6.75,1.97
-8.18,6.34,1.05
-9.09,4.38,0.46
-9.68,3.24,-0.11
-9.27,2.02,-1.10
-9.06,3.13,0.68
-9.45,2.53,-0.16
-9.24,2.79,-0.07
-9.30,2.95,0.05
-9.20,2.98,-0.21
-8.97,2.72,0.32
-8.93,2.89,-0.07
-9.62,3.20,0.04
-9.28,2.78,-0.06
-9.20,3.30,-0.22
-9.23,3.07,-0.27
-9.36,3.05,-0.09
-9.44,2.19,-0.34
-9.17,3.14,0.02
-9.15,2.85,-0.16
-9.03,3.24,0.11
-9.48,2.72,-0.38
-9.21,3.04,-0.15
-9.17,2.99,-0.20
-9.74,4.39,1.76
-9.36,0.72,-0.85
-8.98,3.73,0.84
-9.17,2.31,1.02
-9.16,4.46,0.73
-8.52,3.94,-0.05
-9.27,3.48,1.17
-9.06,3.48,0.50
-8.98,4.06,0.83
-8.99,3.19,0.67
-9.26,4.36,0.79
-9.06,3.04,0.93
-8.61,5.51,1.72
-8.20,6.02,1.64
-7.00,6.98,1.74
-5.27,6.98,2.51
-3.99,8.34,2.48
-2.18,9.40,3.51
0.36,9.12,3.28
1.52,10.20,4.01
2.44,8.93,4.27
3.13,7.08,3.73
3.81,7.36,4.36
3.43,6.64,4.32
4.08,8.55,5.12
3.84,7.52,4.07
3.87,8.47,4.39
3.33,8.29,3.64
3.15,7.69,4.04
1.81,8.83,3.79
1.65,9.37,3.19
1.99,8.42,2.95
2.08,9.36,2.42
1.53,8.99,2.42
1.92,9.69,2.73
2.17,8.77,1.92
1.88,8.74,2.60
1.74,8.45,2.30
1.87,9.40,2.63
1.17,9.73,2.54
2.06,9.56,2.45
2.05,9.48,2.25
2.04,9.37,2.39
2.32,9.74,2.53
2.08,9.64,2.24
2.26,9.42,2.31
1.81,8.94,2.13
2.14,9.56,2.18
1.81,9.22,2.11
2.03,9.03,2.13
2.28,9.82,2.16
2.19,9.74,1.98
1.38,9.17,1.92
1.86,10.03,1.83
1.55,9.28,1.92
2.00,9.75,1.92
1.91,9.17,1.89
2.03,9.94,1.96
1.73,9.10,1.87
1.93,9.62,1.95
1.84,8.94,1.71
2.11,9.89,1.99
2.55,10.32,1.86
2.02,9.17,1.63
2.08,8.90,1.62
2.07,9.47,1.71
2.15,9.55,1.86
2.04,9.46,1.66
2.06,9.21,1.66
2.17,10.07,1.58
2.12,9.82,1.67
2.14,9.83,1.61
1.82,9.18,1.74
2.16,10.06,1.67
2.11,9.83,1.53
2.24,10.02,1.50
2.12,10.22,1.63
1.95,9.28,1.57
2.20,9.80,1.62
2.04,9.40,1.64
2.39,9.56,1.61
2.35,9.78,1.41
2.19,9.70,1.72
2.17,9.72,1.57
2.35,9.83,1.43
1.83,9.53,1.68
1.82,9.87,1.88
1.80,9.08,1.81
2.10,9.49,1.78
1.87,10.02,1.74
1.93,9.32,1.63
2.33,9.22,1.64
1.91,10.04,1.24
2.05,9.39,1.15
2.05,9.48,1.41
2.18,9.81,1.34
2.25,9.62,1.33
1.72,9.17,1.34
1.58,9.49,1.32
1.47,9.24,0.89
1.31,9.16,1.11
1.05,9.28,1.09
-0.37,9.14,1.15
-0.24,9.31,0.28
-1.63,10.31,0.81
-2.45,9.51,0.66
-5.30,8.91,0.89
-7.47,7.52,1.08
-8.03,6.37,0.82
-9.39,5.43,0.56
-9.00,5.08,1.11
-9.33,2.40,-0.20
-8.67,3.75,-0.20
-9.05,3.55,0.69
-9.46,2.64,0.35
-9.52,2.55,0.39
-9.17,2.72,0.31
-9.22,2.91,0.45
-9.30,2.81,0.23
-9.25,2.97,0.11
-9.26,3.03,0.08
-9.21,3.01,0.07
-9.32,3.00,0.16
-9.16,2.99,0.09
-9.13,3.12,0.08
-9.22,2.97,0.12
-9.21,3.04,0.07
-9.20,3.08,-0.03
-9.19,3.07,0.05
-9.05,3.33,0.32
-9.27,2.86,0.06
-9.26,2.65,0.23
-9.30,3.27,0.26
-8.76,4.93,1.19
-9.75,2.26,-0.29
-8.30,4.66,0.86
-8.83,3.25,0.52
-9.41,3.19,0.57
-8.52,3.98,1.07
-9.32,3.79,0.78
-8.28,4.26,1.03
-8.58,4.18,0.66
-8.61,2.23,0.75
-9.12,3.63,1.04
-9.01,3.88,0.61
-8.15,4.80,1.19
-8.84,4.89,0.56
-7.95,6.21,0.82
-7.35,7.17,0.63
-4.88,9.14,0.93
-5.13,8.26,1.10
-3.63,9.36,1.26
-2.09,9.70,1.59
-0.37,9.11,1.75
0.79,9.75,2.44
2.00,9.67,2.38
2.75,8.55,2.31
3.54,7.69,2.62
3.82,8.19,3.25
4.18,8.15,2.98
4.33,8.79,2.75
4.20,8.74,2.84
4.17,8.52,2.75
4.34,8.90,2.50
3.94,7.57,2.19
3.58,7.74,2.88
3.64,9.91,2.58
4.07,9.91,2.18
2.30,8.38,1.79
1.74,9.82,1.58
2.16,10.70,1.60
2.65,10.44,1.28
2.88,9.27,0.91
2.76,9.59,0.34
2.56,9.58,0.45
2.26,9.39,0.14
1.89,9.94,0.17
2.46,10.56,0.31
2.26,9.41,0.16
2.40,10.28,0.24
2.34,9.63,0.21
2.37,9.89,0.22
1.92,9.41,0.43
2.28,9.72,0.38
2.22,9.74,0.47
2.21,9.78,0.33
2.11,9.75,0.20
2.15,9.96,0.08
2.21,9.42,0.44
2.39,9.58,-0.05
2.41,10.14,-0.28
2.23,9.84,-0.07
2.26,9.73,-0.10
2.26,10.06,-0.10
2.24,10.36,-0.02
2.06,9.84,-0.14
1.81,9.16,-0.16
1.14,9.94,-0.21
0.41,9.50,-0.34
-0.72,9.67,-0.26
-3.06,8.56,-0.65
-4.45,9.06,-0.03
-6.21,7.96,-0.12
-7.47,7.58,-0.08
-9.06,4.88,0.72
-8.85,1.06,-3.36
-9.81,2.71,-1.09
-9.28,2.55,-0.83
-9.39,3.25,-1.40
-9.53,3.51,-0.69
-9.13,3.47,-0.87
-9.09,3.61,-1.03
-9.37,3.29,-1.06
-9.26,3.24,-1.00
-9.26,3.18,-1.02
-9.16,3.41,-1.01
-9.23,2.91,-1.21
-9.09,3.81,-0.44
-9.03,3.77,-0.17
-8.68,4.91,0.30
-8.31,5.49,0.64
-7.68,6.87,1.44
-6.73,7.13,0.95
-5.26,8.63,0.59
-4.01,9.37,0.48
-2.83,9.46,0.10
-1.79,9.73,-0.15
-0.84,10.22,-0.19
0.70,10.03,-0.48
0.79,8.83,-0.15
1.64,10.29,-0.05
1.96,9.97,-0.14
1.17,9.79,-0.30
1.13,9.80,-0.61
1.05,9.90,-0.16
1.40,10.13,-0.33
1.39,9.88,-0.62
1.32,9.90,-0.51
1.45,10.02,-0.58
1.14,10.31,-0.62
1.47,10.02,-0.80
1.66,10.62,-0.58
1.18,9.79,-0.91
1.11,10.06,-1.21
1.38,10.13,-1.04
1.12,9.94,-1.22
1.27,10.05,-1.31
1.49,10.04,-1.18
1.54,9.88,-1.43
1.69,10.30,-1.88
1.52,9.98,-1.42
1.74,10.27,-1.54
1.68,10.11,-1.79
1.71,10.08,-1.64
1.55,10.05,-1.49
1.21,9.56,-1.70
1.17,10.01,-1.60
1.25,10.06,-1.85
1.23,9.92,-1.41
1.10,10.05,-1.67
1.19,10.28,-1.53
1.05,9.96,-1.88
0.99,9.74,-1.89
1.26,9.96,-1.66
1.02,10.13,-1.84
1.02,10.02,-1.63
0.88,9.96,-1.73
1.25,10.52,-1.42
0.58,10.03,-0.75
0.78,10.07,-0.17
0.63,10.26,-0.75
1.07,10.48,-0.77
0.62,9.63,-0.78
1.13,10.07,-1.38
1.70,9.95,-1.74
2.56,10.48,-1.92
1.97,10.10,-2.60
1.98,10.07,-2.52
1.02,10.52,-2.07
1.62,10.14,-1.92
1.25,9.95,-2.10
0.90,10.37,-2.03
0.70,9.72,-2.19
1.54,10.28,-1.78
1.72,10.04,-2.22
0.77,9.74,-2.23
1.76,10.32,-2.12
1.74,10.37,-1.84
1.79,9.36,-0.89
2.66,10.30,-1.80
0.92,8.98,-2.36
1.58,9.47,-2.01
1.58,9.96,-1.80
1.99,9.84,-2.02
2.37,10.17,-1.32
2.41,9.81,-1.04
1.54,9.90,-0.71
2.06,9.44,-1.52
1.57,10.26,-0.94
1.80,9.72,-0.80
2.04,10.34,-0.83
1.75,10.09,-0.53
1.91,9.96,-0.02
1.84,10.22,-0.29
1.72,10.85,-0.64
1.58,9.84,-0.71
2.79,10.41,-0.20
0.64,8.78,-0.73
1.11,8.46,-0.54
1.35,9.94,-0.66
1.35,10.38,-1.02
1.58,10.27,-0.89
2.53,10.38,-1.41
2.54,10.36,-0.60
2.05,10.28,-0.52
2.15,10.41,-0.55
2.10,9.85,-1.11
1.78,9.97,-1.12
1.92,9.78,-1.27
1.90,10.58,-0.65
1.29,9.60,-1.36
1.58,9.54,-1.13
1.72,9.32,-1.21
1.82,9.96,-1.12
2.15,10.29,-1.49
2.21,10.27,-1.04
1.82,10.49,-0.87
1.33,10.03,-0.45
1.54,10.22,-0.40
1.47,8.88,0.07
1.49,10.35,0.22
0.65,9.37,-0.47
-0.81,9.91,-0.65
-1.08,10.06,-0.17
-3.13,10.82,0.14
-4.21,9.63,0.41
-5.24,8.46,0.50
-7.15,8.49,1.82
-7.35,6.63,1.65
-8.89,4.68,1.13
-8.38,4.57,1.38
-9.09,3.74,1.50
-9.06,2.54,0.88
-9.26,2.34,0.85
-9.13,2.61,0.88
-9.06,3.24,0.43
-9.14,4.27,0.58
-8.52,4.77,0.31
-7.76,6.23,0.27
-7.78,5.49,-0.00
-7.72,6.43,0.16
-7.71,6.19,-0.29
-7.85,5.89,0.03
-7.80,6.07,-0.07
-7.85,5.75,0.40
-7.93,5.71,0.52
-7.96,5.41,0.24
-8.04,5.45,0.68
-8.06,5.34,0.48
-8.27,5.28,0.66
-8.31,5.34,0.94
-8.33,5.04,1.08
-8.24,4.54,1.29
-8.13,4.61,1.34
-8.67,3.85,1.37
-8.72,4.44,2.16
-9.18,2.15,0.94
-9.55,1.56,1.14
-9.02,3.38,0.87
-10.07,1.49,1.18
-8.96,3.84,1.27
-8.62,3.66,1.13
-8.78,4.34,2.07
-8.78,3.62,1.49
-8.38,4.05,1.82
-8.66,3.99,1.43
-8.51,4.24,1.72
-8.50,4.04,1.87
-8.40,4.21,1.46
-8.39,4.29,1.77
-8.51,4.13,1.68
-8.64,3.62,1.62
-8.65,3.72,1.71
-8.62,3.71,1.64
-8.89,3.15,1.76
-8.81,3.51,1.58
-9.53,3.73,1.07
-9.98,0.35,0.62
-9.28,2.92,0.25
-9.19,2.84,0.64
-9.19,3.04,1.09
-9.02,3.53,0.90
-8.82,3.70,1.14
-8.88,3.60,1.39
-8.72,3.68,1.30
-8.75,3.50,1.42
-8.72,3.91,1.51
-8.73,3.83,1.66
-8.72,3.84,1.36
-8.73,3.91,1.56
-8.85,3.59,1.85
-8.85,3.85,1.72
-8.84,2.89,1.76
-8.74,3.54,1.98
-8.64,3.02,1.71
-8.76,3.08,1.38
-10.16,2.58,1.02
-9.29,2.15,0.06
-9.38,2.97,0.32
-9.28,2.60,0.41
-9.49,4.01,1.25
-8.91,4.04,1.28
-8.73,4.05,1.58
-8.24,5.48,2.27
-7.43,6.14,3.02
-6.46,6.52,3.16
-6.19,6.42,3.43
-5.28,7.97,4.25
-3.60,8.00,3.71
-2.00,8.50,3.02
-1.06,9.84,3.00
0.04,9.37,2.67
1.10,9.11,2.06
1.17,9.29,1.81
1.58,9.11,0.98
1.91,10.02,0.93
1.74,10.47,0.76
1.86,10.14,0.91
1.26,10.13,0.73
-1.30,8.99,1.58
-2.12,9.26,1.49
-1.91,9.21,2.38
-4.98,7.31,3.64
-5.51,7.61,3.95
-0.51,-9.55,-0.91
-0.68,-9.36,-0.91
-0.81,-9.33,-0.77
-0.68,-9.72,-1.04
-0.72,-9.41,-0.78
-0.91,-9.39,-0.86
-0.76,-9.44,-1.02
-0.85,-9.46,-1.06
-0.60,-10.04,-1.20
-0.92,-9.33,-1.01
-0.77,-9.65,-1.13
-0.84,-9.36,-1.13
-0.78,-9.28,-1.07
-0.76,-9.89,-1.50
-0.98,-9.05,-1.13
-0.62,-9.19,-1.04
-0.35,-9.72,-1.02
-0.50,-9.49,-0.97
-0.63,-9.93,-0.96
-0.33,-9.63,-0.95
-0.42,-9.36,-0.69
-0.47,-9.41,-0.72
-0.49,-9.45,-0.71
-0.27,-9.68,-0.82
-0.53,-9.51,-0.79
-0.39,-9.56,-0.85
-0.41,-9.27,-0.94
-0.42,-9.22,-0.84
-0.29,-9.84,-1.00
-0.40,-9.70,-0.91
-0.30,-9.54,-1.09
-0.57,-9.39,-0.96
-0.43,-9.58,-1.06
-0.25,-9.61,-1.17
-0.42,-9.19,-0.99
-0.44,-9.15,-1.23
-0.04,-10.01,-1.27
-0.51,-9.45,-1.19
-0.66,-9.46,-1.08
-0.52,-9.47,-1.14
-0.63,-9.16,-0.81
-0.46,-9.52,-1.02
-0.34,-9.47,-1.11
-0.39,-9.35,-1.13
-0.52,-9.30,-1.12
-0.35,-9.73,-0.91
-0.11,-9.42,-1.27
-0.78,-9.51,-0.91
-0.53,-9.69,-1.35
-0.41,-9.50,-1.29
-0.04,-9.73,-1.27
0.01,-9.52,-1.25
-0.18,-9.29,-1.34
-0.23,-9.55,-1.69
-0.20,-9.42,-1.70
-0.29,-9.66,-1.56
-0.17,-9.60,-1.37
-0.34,-9.71,-1.47
0.02,-9.53,-1.41
0.12,-9.60,-1.56
-0.22,-9.25,-1.26
-0.27,-9.52,-1.42
-0.41,-9.94,-1.49
-0.47,-9.73,-1.52
-0.22,-9.62,-1.46
-0.30,-9.63,-1.29
-0.13,-9.75,-1.54
-0.67,-9.49,-1.33
-0.31,-9.63,-1.69
-0.53,-9.31,-1.14
-0.39,-9.64,-1.32
-0.52,-9.41,-1.12
-0.39,-9.73,-1.21
-0.23,-9.55,-1.24
-0.34,-9.41,-1.17
-0.32,-9.51,-1.11
-0.08,-9.94,-1.47
-0.25,-9.40,-1.30
-0.30,-9.16,-1.31
-0.43,-9.62,-1.21
-0.50,-9.25,-1.25
-0.46,-9.54,-1.40
-0.43,-9.51,-1.23
-0.33,-9.52,-1.47
-0.36,-9.79,-1.43
-0.34,-9.48,-1.39
-0.33,-9.33,-1.42
-0.25,-9.67,-1.49
-0.23,-9.85,-1.42
-0.49,-9.35,-1.42
-0.22,-9.42,-1.31
-0.16,-9.40,-1.40
-0.17,-9.85,-1.42
-0.44,-9.52,-1.20
-0.45,-9.49,-1.25
-0.23,-9.46,-1.43
-0.17,-9.69,-1.37
-0.27,-9.33,-1.30
-0.28,-9.71,-1.37
-0.27,-9.39,-1.47
-0.23,-9.32,-1.55
-0.25,-9.41,-1.39
-0.36,-9.63,-1.33
-0.21,-9.87,-1.59
-0.46,-9.30,-1.36
-0.15,-9.47,-1.58
-0.16,-9.70,-1.53
-0.25,-9.47,-1.49
-0.30,-9.26,-1.52
-0.43,-9.23,-1.37
-0.35,-9.28,-1.38
-0.37,-9.31,-1.50
-0.34,-9.54,-1.42
-0.36,-9.47,-1.50
-0.36,-9.53,-1.36
-0.29,-9.39,-1.46
-0.33,-9.64,-1.47
-0.27,-9.47,-1.45
-0.28,-9.28,-1.33
-0.42,-9.73,-1.41
-0.20,-9.41,-1.41
-0.39,-9.72,-1.52
-0.32,-9.50,-1.52
-0.55,-8.96,-1.38
-0.37,-9.70,-1.47
-0.36,-9.52,-1.52
-0.39,-9.43,-1.41
-0.28,-9.58,-1.46
-0.28,-9.56,-1.53
-0.36,-9.49,-1.34
-0.54,-9.40,-1.37
-0.36,-9.58,-1.40
-0.40,-9.46,-1.40
-0.41,-9.41,-1.39
-0.51,-9.28,-1.36
-0.34,-9.40,-1.42
-0.25,-9.55,-1.39
-0.34,-9.30,-1.39
-0.23,-9.67,-1.37
-0.33,-9.59,-1.33
-0.40,-9.38,-1.36
-0.27,-9.59,-1.42
-0.20,-9.60,-1.44
-0.36,-9.40,-1.33
-0.42,-9.38,-1.36
-0.35,-9.62,-1.46
-0.34,-9.74,-1.47
-0.64,-9.69,-1.25
-0.26,-9.38,-1.55
-0.27,-9.57,-1.56
-0.55,-9.22,-1.33
-0.34,-9.42,-1.59
-0.38,-9.12,-1.50
-0.43,-9.79,-1.41
-0.24,-9.53,-1.69
-0.40,-9.77,-1.61
-0.23,-9.48,-1.64
-0.46,-9.70,-1.62
-0.34,-9.31,-1.48
-0.39,-9.50,-1.60
-0.55,-9.56,-1.57
-0.38,-9.58,-1.65
-0.52,-9.41,-1.46
-0.36,-9.42,-1.66
-0.43,-9.53,-1.59
-0.36,-9.35,-1.58
-0.26,-9.63,-1.62
-0.31,-9.44,-1.49
-0.44,-9.64,-1.62
-0.28,-9.46,-1.76
-0.34,-9.75,-1.59
-0.44,-9.39,-1.70
-0.55,-9.58,-1.54
-0.35,-9.58,-1.66
-0.63,-9.46,-1.66
-0.53,-9.42,-1.69
-0.27,-9.63,-1.78
-0.51,-9.15,-1.68
-0.49,-9.43,-1.67
-0.41,-9.23,-1.73
-0.62,-9.52,-1.64
-0.52,-9.28,-1.77
-0.46,-9.55,-1.68
-0.47,-9.67,-1.63
-0.46,-9.48,-1.75
-0.45,-9.52,-1.75
-0.45,-9.56,-1.75
-0.46,-9.60,-1.73
-0.41,-9.49,-1.82
-0.33,-9.43,-1.77
-0.57,-9.57,-1.65
-0.44,-9.38,-1.84
-0.60,-9.51,-1.71
-0.51,-9.40,-1.57
-0.59,-9.42,-1.66
-0.47,-9.46,-1.77
-0.38,-9.56,-1.74
-0.67,-9.51,-1.78
-0.48,-9.55,-1.74
-0.64,-9.42,-1.77
-0.36,-9.68,-1.78
-0.45,-9.52,-1.79
-0.34,-9.49,-1.79
-0.53,-9.33,-1.69
-0.45,-9.73,-1.80
-0.51,-9.47,-1.78
-0.65,-9.43,-1.74
-0.51,-9.49,-1.84
-0.49,-9.39,-1.69
-0.52,-9.20,-1.75
-0.65,-9.46,-1.75
-0.54,-9.45,-1.88
-0.62,-9.63,-1.86
-0.70,-9.21,-1.65
-0.65,-9.36,-1.93
-0.68,-9.56,-1.93
-0.59,-9.51,-2.00
-0.64,-9.22,-1.95
-0.82,-9.39,-1.81
-0.60,-9.61,-1.81
-0.79,-9.25,-1.81
-0.66,-9.53,-1.94
-0.65,-9.35,-1.85
-0.61,-9.29,-1.87
-0.73,-9.36,-1.92
-0.60,-9.53,-2.01
-0.61,-9.36,-2.00
-0.66,-9.42,-1.89
-0.39,-9.56,-2.07
-0.52,-9.37,-2.04
-0.52,-9.23,-2.03
-0.60,-9.54,-1.92
-0.41,-9.39,-2.09
-0.49,-9.62,-2.16
-0.46,-9.31,-2.16
-0.48,-9.54,-2.09
-0.65,-9.20,-2.08
-0.70,-9.48,-1.92
-0.52,-9.29,-2.17
-0.49,-9.21,-2.11
-0.63,-9.52,-2.03
-0.57,-9.47,-2.04
-0.51,-9.57,-2.09
-0.55,-9.20,-2.08
-0.58,-9.44,-2.11
-0.56,-9.30,-2.03
-0.49,-9.44,-2.07
-0.67,-9.51,-2.12
-0.52,-9.53,-2.09
-0.55,-9.30,-2.15
-0.49,-9.24,-2.15
-0.50,-9.55,-2.26
-0.58,-9.50,-2.20
-0.62,-9.39,-2.08
-0.45,-9.54,-2.08
-0.34,-9.30,-2.20
-0.65,-9.18,-2.03
-0.69,-9.43,-2.04
-0.60,-9.32,-2.01
-0.64,-9.60,-2.08
-0.51,-9.38,-2.17
-0.71,-9.50,-1.95
-0.65,-9.32,-2.16
-0.62,-9.36,-2.05
-0.59,-9.60,-2.15
-0.58,-9.51,-2.05
-0.48,-9.38,-2.29
-0.67,-9.36,-2.14
-0.84,-9.34,-2.01
-0.67,-9.47,-2.08
-0.68,-9.44,-2.00
-0.77,-9.46,-2.02
-0.63,-9.61,-2.22
-0.67,-9.45,-2.29
-0.76,-9.32,-2.20
-0.67,-9.28,-2.07
-0.64,-9.21,-2.14
-0.68,-9.68,-2.15
-0.75,-9.28,-2.29
-0.90,-9.27,-2.13
-0.55,-9.45,-2.28
-0.65,-9.50,-2.15
-0.57,-9.42,-2.26
-0.67,-9.35,-2.32
-0.70,-9.48,-2.17
-0.66,-9.63,-2.36
-0.53,-9.43,-2.05
-0.45,-9.48,-2.31
-0.39,-9.57,-2.29
-0.56,-9.43,-2.18
-0.48,-9.22,-2.21
-0.21,-9.28,-2.26
-0.77,-9.36,-2.37
-0.40,-9.47,-2.42
-0.46,-9.41,-2.47
-0.47,-9.45,-2.31
-0.90,-9.53,-2.25
-0.67,-9.63,-2.47
-0.86,-9.17,-2.37
-0.88,-9.34,-2.27
-0.20,-9.32,-2.35
-0.58,-9.41,-2.29
-0.68,-9.37,-2.35
-0.69,-9.20,-2.31
-1.12,-9.15,-2.21
-0.61,-9.65,-2.39
-0.58,-9.18,-2.41
-0.66,-9.36,-2.38
-0.70,-9.42,-2.24
-0.65,-9.26,-2.33
-0.75,-9.46,-2.31
-0.75,-9.36,-2.37
-0.79,-9.18,-2.33
-0.50,-9.44,-2.46
-0.68,-9.34,-2.31
-0.68,-9.52,-2.33
-0.71,-9.31,-2.37
-0.87,-9.39,-2.27
-0.62,-9.27,-2.29
-0.89,-9.22,-2.23
-0.72,-9.32,-2.27
-0.68,-9.48,-2.31
-0.73,-9.27,-2.41
-0.86,-9.32,-2.38
-1.02,-9.45,-2.28
-0.99,-9.45,-2.24
-0.79,-9.26,-2.35
-0.87,-9.30,-2.32
-0.86,-9.10,-2.28
-0.90,-9.40,-2.27
-0.65,-9.26,-2.36
-0.89,-9.57,-2.31
-0.84,-8.97,-2.34
-0.81,-9.39,-2.49
-0.84,-9.48,-2.30
-0.70,-9.36,-2.38
-0.79,-9.45,-2.36
-0.73,-9.14,-2.35
-0.83,-9.33,-2.23
-0.67,-9.45,-2.39
-0.70,-9.21,-2.48
-0.82,-9.17,-2.42
-0.84,-9.35,-2.36
-0.89,-9.34,-2.43
-1.03,-9.27,-2.26
-0.89,-9.53,-2.40
-0.74,-9.40,-2.43
-1.00,-9.24,-2.39
-0.97,-9.31,-2.51
-1.07,-9.33,-2.38
-0.89,-9.49,-2.44
-0.79,-9.30,-2.59
-0.95,-9.39,-2.43
-0.84,-9.45,-2.54
-0.95,-9.18,-2.26
-0.77,-9.27,-2.36
-1.18,-9.16,-2.33
-0.99,-9.38,-2.61
-1.02,-9.30,-2.36
-1.07,-9.41,-2.45
-1.03,-9.37,-2.37
-1.09,-9.17,-2.53
-0.67,-9.25,-2.55
-1.18,-9.23,-2.36
-1.15,-9.33,-2.44
-1.09,-9.19,-2.59
-1.02,-9.29,-2.45
-0.99,-9.29,-2.49
-0.99,-9.23,-2.40
-0.80,-9.36,-2.42
-0.97,-9.17,-2.42
-1.10,-8.90,-2.15
-1.21,-9.24,-2.48
-1.41,-9.37,-2.27
-1.70,-9.23,-2.32
-1.66,-9.38,-2.24
-1.89,-9.24,-2.20
-2.28,-8.76,-1.66
-3.06,-8.17,-2.10
-3.82,-8.42,-1.71
-5.54,-9.05,-1.59
-6.34,-7.70,-1.06
-7.10,-6.57,-0.65
-7.56,-5.76,-0.51
-8.81,-4.97,0.48
-9.45,-3.83,0.03
-9.07,-2.64,-0.04
-9.10,-1.68,-1.43
-9.42,-1.97,-1.63
-9.51,-1.07,-1.43
-10.03,-0.74,-1.64
-9.58,0.07,-1.70
-9.62,0.15,-1.73
-9.81,-0.64,-1.68
-9.38,-0.36,-1.82
-9.73,0.03,-1.42
-9.59,-0.34,-1.55
-9.92,-0.70,-1.57
-9.52,-0.64,-1.72
-9.20,-0.15,-2.02
-10.00,1.00,-1.59
-9.84,0.55,-1.33
-9.63,0.01,-1.91
-9.77,0.15,-1.81
-9.69,-0.23,-1.42
-9.90,0.54,-1.77
-9.60,0.24,-2.03
-9.92,0.13,-1.66
-9.71,0.05,-1.76
-9.60,-0.33,-2.39
-9.46,0.20,-2.17
-9.39,0.49,-2.14
-9.59,-0.09,-1.90
-9.39,-0.72,-2.25
-9.70,0.45,-1.80
-9.66,0.36,-1.87
-9.54,0.20,-1.77
-9.50,0.13,-2.28
-9.32,-0.53,-1.76
-9.70,0.04,-1.78
-9.70,0.30,-1.89
-9.74,0.47,-1.56
-9.73,0.41,-1.58
-9.71,0.25,-1.36
-9.94,0.53,-1.91
-9.68,0.30,-1.64
-9.06,-0.15,-1.62
-9.68,0.05,-1.85
-9.87,0.58,-1.76
-9.63,0.29,-1.61
-9.54,0.27,-2.05
-9.49,0.31,-1.80
-9.78,0.73,-1.51
-9.82,0.58,-1.74
-9.68,0.11,-1.71
-9.51,1.02,-1.97
-9.79,0.37,-1.98
-9.54,0.72,-2.00
-9.35,0.02,-1.99
-9.58,0.37,-2.00
-9.64,0.12,-2.05
-9.35,0.23,-2.15
-9.53,0.23,-2.07
-9.55,0.55,-1.87
-9.58,0.16,-1.97
-9.56,0.05,-2.08
-9.70,0.20,-2.17
-9.63,0.27,-1.81
-9.49,0.90,-1.86
-9.49,0.55,-2.03
-9.68,0.23,-1.75
-9.89,0.50,-1.79
-9.60,0.51,-1.91
-9.53,0.04,-1.83
-9.68,0.31,-1.75
-9.55,0.32,-1.73
-9.79,0.46,-1.89
-9.63,0.39,-2.00
-9.56,0.38,-1.92
-9.62,0.75,-1.81
-9.62,0.28,-1.79
-9.37,0.30,-1.84
-9.61,0.33,-1.71
-9.44,0.34,-1.88
-9.73,0.57,-1.86
-9.65,0.55,-2.05
-9.32,0.54,-1.46
-9.47,0.18,-2.12
-9.60,0.37,-1.66
-9.51,0.28,-1.74
-9.58,0.27,-1.64
-9.55,0.49,-1.92
-9.66,0.47,-1.96
-9.53,0.53,-1.92
-9.62,0.42,-1.69
-9.59,0.51,-1.68
-9.73,0.61,-1.90
-9.71,0.51,-1.74
-9.50,0.57,-1.72
-9.53,0.23,-1.74
-9.49,0.28,-1.93
-9.77,0.57,-1.96
-9.63,0.35,-1.65
-9.58,0.46,-1.58
-9.60,0.48,-1.89
-9.59,0.06,-1.91
-9.76,0.22,-1.61
-9.78,0.46,-1.58
-9.58,0.51,-1.76
-9.85,0.25,-1.30
-9.60,0.17,-1.48
-9.35,0.22,-1.70
-9.56,0.23,-1.46
-9.48,0.29,-1.48
-9.71,0.51,-1.59
-9.69,0.25,-1.36
-9.53,0.68,-1.13
-9.81,0.42,-1.41
-9.62,0.12,-1.42
-9.56,0.36,-1.59
-9.54,0.57,-1.41
-9.83,0.54,-1.45
-9.50,0.36,-1.57
-9.83,0.31,-1.40
-9.54,0.29,-1.70
-9.47,0.09,-1.66
-9.71,0.26,-1.38
-9.80,0.26,-1.45
-9.63,0.29,-1.39
-9.65,0.48,-1.57
-9.66,0.46,-1.41
-9.64,0.40,-1.43
-9.72,0.35,-1.57
-9.59,0.25,-1.41
-9.62,0.42,-1.50
-9.55,0.32,-1.41
-9.56,0.44,-1.32
-9.69,0.16,-1.46
-9.52,0.37,-1.38
-9.61,0.32,-1.36
-9.71,0.39,-1.43
-9.58,0.26,-1.61
-9.58,0.47,-1.31
-9.71,0.41,-1.36
-9.53,0.50,-1.40
-9.59,0.28,-1.29
-9.89,0.47,-1.35
-9.63,0.45,-1.41
-9.74,0.27,-1.33
-9.65,0.49,-1.40
-9.74,0.35,-1.36
-9.75,0.65,-1.43
-9.78,0.60,-1.47
-9.61,0.40,-1.50
-9.72,0.45,-1.50
-9.69,0.50,-1.36
-9.64,0.36,-1.40
-9.60,0.18,-1.53
-9.58,0.47,-1.39
-9.68,0.47,-1.32
-9.75,0.36,-1.44
-9.52,0.28,-1.33
-9.68,0.46,-1.44
-9.64,0.30,-1.33
-9.72,0.34,-1.41
-9.58,0.29,-1.39
-9.52,0.31,-1.52
-9.56,0.22,-1.58
-9.62,0.57,-1.28
-9.63,0.24,-1.51
-9.63,0.31,-1.26
-9.69,0.45,-1.21
-9.51,0.25,-1.38
-9.78,0.36,-1.32
-9.58,0.41,-1.19
-9.62,0.51,-1.31
-9.72,0.32,-1.27
-9.67,0.26,-1.36
-9.53,0.38,-1.27
-9.57,0.36,-1.34
-9.59,0.36,-1.35
-9.61,0.30,-1.32
-9.63,0.44,-1.25
-9.58,0.50,-1.28
-9.58,0.30,-1.42
-9.61,0.43,-1.25
-9.64,0.09,-1.31
-9.52,0.36,-1.34
-9.65,0.05,-1.30
-9.66,0.29,-1.42
-9.65,0.34,-1.21
-9.73,0.40,-1.31
-9.64,0.22,-1.37
-9.73,0.33,-1.27
-9.56,0.01,-1.32
-9.68,0.33,-1.29
-9.72,0.51,-1.18
-9.62,0.33,-1.20
-9.53,0.24,-1.44
-9.85,0.39,-1.13
-9.71,0.14,-1.23
-9.65,0.32,-1.26
-9.68,0.22,-1.30
-9.64,0.30,-1.17
-9.57,0.31,-1.29
-9.51,0.13,-1.38
-9.58,0.20,-1.28
-9.74,0.41,-1.31
-9.63,0.41,-1.29
-9.50,0.24,-1.21
-9.62,0.14,-1.52
-9.60,0.20,-1.35
-9.64,0.12,-1.36
-9.58,0.12,-1.38
-9.72,0.46,-1.27
-9.55,0.16,-1.35
-9.51,0.24,-1.37
-9.52,0.10,-1.32
-9.69,0.21,-1.26
-9.70,0.23,-1.46
-9.66,0.18,-1.38
-9.51,0.25,-1.28
-9.53,0.32,-1.35
-9.51,0.32,-1.35
-9.56,0.07,-1.35
-9.69,0.44,-1.21
-9.71,0.35,-1.24
-9.72,0.35,-1.28
-9.54,0.21,-1.47
-9.69,0.32,-1.31
-9.75,0.45,-1.31
-9.70,0.50,-1.26
-9.70,0.53,-1.32
-9.66,0.18,-1.43
-9.61,0.28,-1.38
-9.62,0.33,-1.28
-9.70,0.21,-1.29
-9.72,0.42,-1.32
-9.56,0.28,-1.29
-9.57,0.09,-1.42
-9.67,0.29,-1.33
-9.51,0.10,-1.50
-9.63,0.46,-1.27
-9.75,0.27,-1.44
-9.76,0.34,-1.33
-9.54,0.34,-1.28
-9.69,0.38,-1.37
-9.67,0.59,-1.36
-9.58,0.46,-1.37
-9.72,0.42,-1.19
-9.61,0.51,-1.14
-9.61,0.27,-1.25
-9.66,0.32,-1.32
-9.65,0.39,-1.22
-9.55,0.22,-1.55
-9.67,0.27,-1.35
-9.59,0.22,-1.39
-9.64,0.31,-1.30
-9.61,0.14,-1.21
-9.60,0.19,-1.36
-9.55,0.25,-1.40
-9.59,0.36,-1.26
-9.62,0.29,-1.17
-9.67,0.29,-1.24
-9.69,0.28,-1.40
-9.72,0.35,-1.32
-9.56,0.40,-1.31
-9.57,0.41,-1.37
-9.72,0.24,-1.26
-9.41,0.16,-1.37
-9.62,0.34,-1.38
-9.54,0.33,-1.42
-9.58,0.18,-1.33
-9.69,0.53,-1.34
-9.82,0.17,-1.41
-9.68,0.13,-1.25
-9.62,0.46,-1.46
-9.52,0.34,-1.33
-9.77,0.22,-1.27
-9.45,0.23,-1.34
-9.51,0.32,-1.28
-9.69,0.49,-1.33
-9.53,0.15,-1.48
-9.71,0.17,-1.30
-9.68,0.44,-1.09
-9.51,0.05,-1.38
-9.71,0.23,-1.49
-9.64,0.30,-1.33
-9.70,0.38,-1.24
-9.55,0.27,-1.37
-9.56,0.33,-1.27
-9.53,0.13,-1.33
-9.65,0.12,-1.37
-9.72,0.27,-1.45
-9.51,0.20,-1.34
-9.55,0.20,-1.36
-9.72,0.30,-1.25
-9.60,0.40,-1.42
-9.62,0.34,-1.34
-9.65,0.25,-1.16
-9.64,0.26,-1.38
-9.58,0.21,-1.46
-9.62,0.05,-1.30
-9.64,-0.00,-1.32
-9.74,0.01,-1.34
-9.62,0.23,-1.17
-9.63,0.35,-1.16
-9.58,0.39,-1.23
-9.54,0.28,-1.28
-9.64,0.11,-1.20
-9.66,0.26,-1.27
-9.69,0.18,-1.19
-9.62,0.18,-1.21
-9.66,0.19,-1.28
-9.70,0.30,-1.01
-9.61,0.06,-1.13
-9.71,0.21,-1.18
-9.82,0.35,-0.80
-9.50,-0.74,-1.08
-9.85,-0.11,-0.50
-9.52,-0.60,-0.41
-9.62,-0.43,-0.15
-9.42,-1.07,0.29
-9.38,-1.65,0.26
-9.30,-2.01,0.45
-9.25,-1.48,0.50
-9.10,-1.74,0.32
-9.13,-2.17,0.32
-9.24,-2.38,-0.02
-9.28,-2.45,-0.23
-9.40,-2.61,-0.47
-9.18,-2.56,-0.78
-8.98,-2.77,-0.98
-9.26,-2.92,-0.96
-9.14,-3.23,-1.08
-8.93,-3.03,-1.27
-9.02,-3.21,-1.26
-9.01,-3.13,-0.98
-9.09,-3.19,-1.06
-9.02,-2.97,-1.00
-9.11,-3.31,-0.80
-9.03,-3.37,-0.61
-8.82,-3.67,-0.57
-8.83,-3.28,-0.43
-8.89,-3.30,0.03
-8.83,-3.32,-0.10
-8.78,-3.79,-0.18
-8.83,-3.79,-0.07
-8.87,-3.62,-0.12
-8.72,-3.57,-0.07
-9.06,-3.27,-0.15
-9.13,-3.00,-0.03
-9.22,-2.83,-0.23
-9.13,-2.36,-0.11
-9.18,-2.45,-0.20
-9.09,-2.19,-0.62
-9.31,-2.00,-0.78
-9.53,-1.36,-1.09
-9.52,-1.63,-0.94
-9.45,-1.53,-0.89
-9.57,-1.27,-0.93
-9.73,-0.79,-0.73
-9.48,-2.23,-1.30
-9.31,-2.10,-1.42
-9.28,-2.12,-1.04
-9.28,-2.20,-1.05
-9.26,-2.21,-0.84
-9.09,-2.88,-1.06
-9.37,-2.42,-0.70
-9.15,-2.74,-0.96
-9.15,-2.70,-0.84
-9.29,-2.61,-0.74
-9.12,-2.82,-0.78
-9.19,-2.99,-0.79
-9.11,-3.29,-0.53
-9.06,-3.29,-0.78
-8.88,-3.43,-0.61
-8.85,-3.44,-0.47
-8.77,-3.72,-0.30
-8.74,-4.21,-0.03
-8.54,-4.30,-0.02
-8.56,-4.17,0.39
-8.12,-5.78,0.90
-8.23,-4.26,1.57
-7.39,-4.69,2.04
-7.42,-5.06,2.36
-6.94,-5.16,2.48
-7.14,-4.93,2.49
-7.29,-3.84,2.67
-8.04,-4.10,1.80
-8.87,-4.04,1.81
-9.37,-2.83,1.93
-8.83,-3.39,1.03
-8.60,-4.06,1.03
-8.45,-4.06,1.15
-8.30,-5.16,1.30
-7.95,-5.14,1.36
-7.75,-6.04,1.32
-6.45,-6.79,1.35
-5.57,-7.35,1.71
-4.53,-8.50,1.80
-3.96,-8.17,1.71
-2.76,-9.09,1.81
-1.25,-9.28,2.21
-0.17,-8.64,3.40
0.91,-7.96,3.13
1.63,-7.97,3.76
1.24,-7.89,4.07
1.29,-7.66,3.89
1.28,-8.59,3.81
1.14,-8.75,3.54
0.86,-8.73,3.67
1.28,-8.00,3.40
1.36,-8.61,3.39
1.38,-8.47,2.94
1.52,-9.33,2.43
1.93,-9.27,2.19
1.72,-8.56,2.29
1.71,-8.65,1.81
2.72,-7.45,1.59
2.83,-9.45,1.03
2.43,-9.81,1.71
3.09,-8.79,1.64
3.82,-8.07,1.21
4.12,-8.45,0.94
3.81,-8.13,1.78
3.84,-8.60,1.58
3.97,-8.84,1.50
3.83,-8.34,1.21
3.83,-8.56,1.37
3.87,-8.73,1.62
3.95,-8.23,1.34
4.13,-8.63,1.58
3.99,-9.13,1.16
4.08,-7.91,1.25
4.39,-8.45,1.11
4.40,-8.89,1.13
4.25,-8.65,1.08
4.19,-8.38,0.98
4.17,-8.25,0.93
4.21,-8.62,1.09
4.20,-8.48,1.09
3.64,-7.51,1.69
3.44,-9.12,0.75
3.05,-8.95,-0.05
2.21,-8.47,-0.10
2.32,-10.12,-0.88
1.74,-9.85,-0.57
1.60,-9.36,-0.42
1.79,-9.38,-0.34
1.80,-9.28,-0.40
1.94,-9.13,-0.60
1.73,-9.67,-0.55
1.77,-9.10,-0.66
2.02,-9.34,-1.07
1.96,-9.49,-0.94
2.10,-9.46,-0.89
2.46,-8.97,-1.07
2.28,-9.54,-1.21
2.24,-8.69,-1.07
2.41,-9.57,-0.70
2.04,-8.92,0.63
1.85,-9.37,1.19
2.12,-8.85,0.72
1.55,-8.90,1.54
1.36,-8.83,1.70
0.54,-8.86,0.34
0.47,-10.44,-0.76
0.23,-10.23,-0.97
-0.27,-7.71,-1.25
0.10,-9.16,-1.65
0.44,-9.43,-2.11
0.35,-10.22,-2.26
-0.55,-8.06,-1.39
-1.42,-8.68,-1.25
-3.74,-8.61,-1.29
-4.14,-8.90,-1.77
-4.26,-8.73,-1.95
-6.68,-6.80,-1.66
-7.24,-6.82,-1.47
-8.13,-5.07,-0.97
-8.38,-5.14,-1.25
-9.10,-4.09,-0.90
-8.89,-4.19,-1.13
-8.66,-3.43,-1.65
-8.67,-3.81,-1.07
-8.83,-3.73,-0.92
-8.72,-3.64,-1.08
-8.81,-3.66,-1.05
-8.98,-3.12,-0.84
-9.04,-3.66,-0.85
-9.00,-3.35,-0.73
-8.87,-2.97,-0.86
-9.17,-2.75,-0.24
-8.86,-3.63,-1.04
-8.86,-3.20,-0.68
-8.84,-3.63,-0.79
-8.72,-3.85,-0.62
-8.75,-3.94,-0.52
-8.65,-4.28,-0.65
-8.41,-4.41,-0.09
-8.26,-4.62,0.14
-8.28,-4.28,0.53
-8.24,-5.08,0.54
-7.93,-5.24,0.46
-7.87,-5.68,0.72
-7.36,-5.89,0.72
-6.90,-6.69,1.25
-6.58,-6.34,1.47
-6.02,-6.64,2.03
-5.64,-6.79,2.58
-5.12,-6.55,2.76
-5.21,-7.06,3.36
-5.62,-6.81,3.23
-5.14,-6.64,3.18
-5.50,-6.02,3.44
-6.52,-5.77,3.33
-6.60,-6.10,3.28
-7.24,-5.08,2.62
-7.61,-4.83,2.79
-7.95,-4.06,2.71
-7.83,-4.34,2.07
-7.75,-4.36,2.16
-7.92,-4.33,2.04
-7.88,-4.83,2.36
-7.39,-5.00,2.26
-7.82,-4.46,2.18
-7.73,-4.78,2.24
-7.77,-4.25,2.19
-7.86,-4.61,2.15
-7.64,-5.21,2.03
-7.76,-5.06,1.93
-7.14,-6.31,1.68
-6.72,-6.58,1.36
-6.02,-7.52,1.45
-5.14,-7.79,1.64
-3.41,-8.26,1.36
-2.27,-8.86,1.40
-1.42,-9.42,1.65
-0.21,-9.06,2.05
1.45,-8.95,2.57
1.42,-7.96,3.21
1.93,-6.57,3.65
2.30,-8.34,3.34
1.72,-8.40,3.69
1.88,-8.45,3.91
1.70,-8.37,3.84
1.69,-8.39,3.50
1.99,-8.89,3.41
2.22,-8.27,3.53
2.29,-8.66,3.38
1.65,-8.26,3.12
2.04,-8.69,3.16
2.47,-7.63,3.07
3.11,-8.85,2.87
2.76,-8.70,2.21
2.35,-8.66,2.04
2.71,-9.51,1.93
3.21,-8.43,1.64
3.28,-6.93,1.51
3.48,-7.72,1.81
4.19,-8.50,1.13
4.58,-8.90,0.76
4.11,-8.27,0.53
4.50,-8.10,0.87
4.21,-8.51,0.95
4.04,-8.18,1.00
3.94,-8.00,1.45
4.41,-9.19,1.68
4.51,-8.49,1.15
3.87,-8.52,1.36
3.51,-8.89,1.33
3.67,-8.97,1.25
3.60,-8.61,1.61
3.62,-8.67,1.32
3.64,-8.61,1.21
3.86,-8.48,1.70
3.48,-8.54,1.84
3.95,-8.51,1.30
3.78,-8.79,1.33
3.68,-8.58,1.19
3.62,-8.61,1.26
3.33,-8.37,1.15
3.57,-8.73,0.90
3.31,-9.15,0.80
3.23,-8.78,0.90
3.23,-8.84,0.92
3.28,-8.88,0.30
3.06,-9.06,1.18
2.61,-8.47,1.49
2.85,-8.89,1.64
2.42,-9.09,1.98
2.40,-8.53,2.15
1.96,-8.61,2.60
1.81,-8.86,2.38
0.53,-8.52,3.39
-0.35,-6.27,3.79
-1.77,-6.95,4.05
-3.77,-8.17,4.91
-4.43,-7.08,4.64
-6.03,-5.37,4.58
-6.51,-4.16,4.53
-7.39,-4.25,3.84
-7.52,-3.62,3.71
-8.78,-3.00,3.01
-8.58,-3.04,2.47
-8.91,-2.29,2.18
-9.30,-1.60,1.70
-9.20,-2.37,0.59
-9.36,-1.96,-0.11
-9.41,-2.07,0.10
-9.69,-2.00,-0.04
-9.43,-1.40,-0.72
-9.51,-1.58,-0.66
-9.66,-1.47,-0.54
-9.44,-1.53,-0.97
-9.46,-1.70,-0.67
-9.57,-1.42,-0.56
-9.51,-1.48,-0.58
-9.55,-1.41,-0.61
-9.44,-1.39,-0.42
-9.22,-0.89,-1.08
-9.94,-1.57,-0.48
-9.23,-1.82,-1.24
-9.49,-1.92,-0.96
-9.65,-1.95,-0.94
-9.36,-2.07,-1.12
-9.07,-2.19,-1.18
-9.44,-2.14,-1.02
-9.25,-2.13,-0.86
-9.35,-2.35,-0.76
-9.33,-2.15,-0.74
-9.51,-2.61,0.35
-9.18,-2.98,0.73
-9.27,-3.37,1.03
-8.61,-4.35,1.46
-8.15,-5.07,2.04
-6.73,-6.55,2.89
-4.93,-7.09,2.55
-3.28,-8.19,2.62
-1.80,-8.74,3.04
-0.07,-8.03,2.58
1.14,-7.24,2.13
0.66,-9.64,2.52
1.04,-9.03,2.19
0.91,-9.09,2.06
0.85,-9.04,2.08
1.05,-9.20,2.01
0.94,-9.28,1.87
1.07,-9.23,1.73
0.91,-9.00,1.87
1.32,-9.35,1.56
1.36,-9.35,1.71
1.77,-9.32,1.38
2.02,-9.02,1.16
2.30,-9.11,1.02
2.53,-9.20,0.87
2.60,-8.63,1.27
2.66,-8.80,1.49
2.87,-8.89,1.57
3.10,-8.69,1.54
2.67,-8.98,1.90
2.78,-8.26,2.40
2.13,-9.26,2.87
1.92,-8.77,3.23
2.66,-8.81,2.91
2.81,-8.28,2.92
2.82,-8.37,2.97
2.66,-8.34,3.09
2.78,-8.10,3.05
2.54,-8.93,2.87
2.89,-8.79,2.71
2.93,-9.09,2.78
4.26,-7.70,2.24
4.36,-7.95,1.90
4.35,-8.38,1.68
4.41,-7.98,1.56
4.19,-8.38,1.79
4.52,-8.52,1.50
4.67,-8.17,0.86
5.05,-7.38,0.83
5.16,-8.43,0.23
4.85,-8.84,0.06
4.85,-9.11,-0.93
4.53,-8.94,-0.34
4.37,-8.36,-0.14
4.43,-8.48,-0.06
4.51,-8.40,-0.09
4.47,-8.63,-0.20
4.43,-8.65,-0.09
4.35,-8.76,-0.13
4.07,-8.48,-0.03
4.48,-8.96,-0.08
4.14,-8.87,-0.26
4.20,-8.34,-0.11
4.35,-8.78,-0.27
4.20,-8.79,-0.34
4.19,-8.64,-0.17
4.24,-8.60,-0.27
4.19,-8.65,-0.25
4.19,-8.66,-0.30
4.08,-8.69,-0.32
3.89,-8.44,-0.34
3.89,-8.97,-0.47
3.82,-9.08,-0.61
3.93,-8.71,-0.46
3.78,-8.97,-0.46
3.59,-8.54,-0.34
3.15,-8.94,-0.62
2.00,-8.68,-0.74
1.21,-9.50,-0.95
0.36,-9.15,-1.59
-0.91,-9.51,-1.53
-1.39,-9.55,-0.83
-3.34,-8.73,-0.14
-4.41,-8.64,0.21
-4.56,-8.11,0.49
-5.85,-7.81,0.36
-6.51,-6.38,0.61
-7.07,-6.54,0.90
-7.42,-5.03,0.81
-8.15,-4.93,0.80
-9.11,-3.50,0.57
-9.43,-2.67,0.18
-9.51,-2.03,0.18
-9.31,-1.13,-1.10
-9.61,-1.51,-1.42
-9.58,-1.69,-1.41
-9.44,-1.59,-1.60
-9.48,-1.58,-1.49
-9.44,-1.65,-1.25
-9.41,-1.70,-1.06
-9.40,-1.73,-1.04
-9.42,-1.56,-1.16
-9.41,-1.64,-1.10
-9.46,-1.69,-1.03
-9.40,-1.79,-1.19
-9.49,-1.81,-1.07
-9.39,-1.84,-1.09
-9.54,-1.77,-1.08
-9.44,-1.77,-1.12
-9.42,-1.91,-1.06
-9.42,-1.92,-1.05
-9.38,-1.91,-0.96
-9.39,-2.04,-1.08
-9.24,-1.95,-1.01
-9.42,-1.29,-0.67
-9.45,-1.61,-0.85
-9.40,-2.24,-1.08
-9.43,-1.46,-0.82
-9.33,-1.84,-0.79
-9.39,-2.13,-0.93
-9.39,-2.27,-0.88
-9.48,-1.60,-0.88
-9.37,-1.98,-0.87
-9.40,-2.03,-0.74
-9.39,-2.01,-0.69
-9.34,-2.81,-0.51
-9.02,-3.50,-0.40
-8.72,-3.74,-0.19
-8.35,-5.11,0.32
-8.03,-5.08,0.51
-7.16,-6.18,0.57
-6.76,-6.96,0.77
-5.94,-7.60,0.84
-5.18,-8.06,1.23
-3.62,-8.71,1.72
-2.61,-8.79,1.80
-1.40,-8.74,2.02
-0.30,-8.96,1.92
0.65,-8.61,1.99
0.76,-8.42,2.17
1.21,-9.63,1.77
1.33,-9.42,1.19
1.45,-9.82,0.89
1.54,-9.15,0.91
1.44,-9.38,1.33
2.06,-8.77,1.72
2.60,-8.70,2.12
2.45,-8.35,2.89
2.55,-7.45,3.68
2.19,-7.89,3.74
2.41,-7.54,4.33
2.43,-7.50,4.55
2.54,-7.48,4.60
2.28,-7.54,4.65
2.27,-7.36,4.64
2.69,-8.18,3.96
2.93,-8.10,3.92
3.24,-8.14,3.22
3.65,-8.15,3.36
3.58,-8.21,3.39
3.57,-7.88,3.05
3.85,-8.28,2.95
3.91,-8.32,2.52
3.90,-8.13,2.14
3.77,-8.15,1.90
3.95,-8.60,1.37
4.10,-8.58,0.51
4.56,-8.49,0.63
4.21,-8.59,0.48
3.87,-8.50,0.41
3.95,-9.48,-0.35
4.23,-8.74,-0.85
4.23,-8.37,-0.63
3.98,-8.53,0.05
4.20,-8.64,-0.73
4.07,-9.07,-0.68
3.99,-8.75,-0.59
4.03,-8.67,-0.51
3.85,-8.80,-0.59
3.82,-8.82,-0.58
3.82,-8.90,-0.57
3.84,-8.86,-0.72
3.90,-8.80,-0.70
3.85,-8.93,-0.50
3.97,-8.90,-0.61
3.95,-8.86,-0.54
3.94,-8.89,-0.69
3.85,-8.86,-0.58
3.76,-8.60,-0.41
3.85,-8.89,-0.35
3.90,-9.05,-0.57
3.85,-8.72,-0.46
3.77,-8.94,-0.48
3.93,-8.81,-0.55
3.75,-8.87,-0.57
3.72,-8.79,-0.45
3.70,-8.83,-0.27
3.75,-8.92,-0.54
3.74,-8.90,-0.60
3.71,-8.80,-0.65
3.64,-9.17,-0.61
3.60,-8.75,-0.47
3.37,-9.13,-0.13
3.41,-8.85,0.13
3.10,-8.85,0.57
2.63,-8.26,1.15
2.15,-8.41,2.01
1.35,-9.15,2.53
0.35,-8.83,3.19
-1.42,-8.24,3.85
-2.27,-7.11,4.50
-3.46,-6.23,4.92
-5.27,-6.11,5.06
-5.69,-4.51,4.90
-7.45,-3.83,4.51
-8.09,-2.72,3.96
-8.75,-1.87,2.53
-9.59,-1.22,2.09
-9.67,-1.35,1.70
-9.77,-0.76,0.47
-9.36,-1.27,0.33
-9.55,-1.09,0.34
-9.41,-1.06,0.43
-9.46,-1.12,0.42
-9.49,-1.13,0.42
-9.46,-1.14,0.41
-9.49,-1.13,0.34
-9.52,-1.06,0.32
-9.55,-1.20,0.29
-9.40,-1.05,0.36
-8.85,-1.55,-0.79
-9.64,-0.64,0.33
-9.34,-0.82,-0.71
-9.83,-1.35,-0.66
-10.19,-0.64,-0.91
-9.95,0.02,-1.51
-9.54,0.34,-1.67
-9.57,-0.38,-1.75
-9.59,-0.18,-2.00
-10.24,-1.03,-1.49
-9.75,-1.19,-1.20
-9.37,-2.35,-0.87
-7.99,-6.30,-1.32
-7.80,-5.41,-1.01
-6.36,-7.49,-2.13
-5.15,-8.63,-2.76
-4.61,-8.00,-2.42
-3.62,-8.50,-2.65
-1.94,-8.99,-2.99
-1.47,-9.39,-2.53
-0.08,-8.45,-2.70
0.41,-9.75,-2.77
0.64,-9.94,-1.52
1.00,-9.73,-1.03
0.80,-9.08,-0.37
0.73,-9.53,-0.44
0.57,-9.07,-0.39
0.27,-8.87,-0.62
0.87,-10.24,-0.58
0.93,-9.38,-0.50
0.86,-8.78,-0.61
-0.03,-8.85,-0.58
0.31,-10.10,-0.56
-0.16,-9.71,-1.14
0.20,-9.11,-0.86
0.26,-9.52,-1.00
-0.27,-9.14,-0.66
-0.25,-9.40,-0.49
-0.18,-9.85,-1.30
-0.45,-9.45,-1.47
-0.44,-8.98,-1.03
-0.18,-9.51,-1.10
-0.28,-9.58,-1.12
-0.20,-9.42,-1.37
-0.08,-9.73,-1.28
-0.28,-9.90,-1.51
-0.38,-9.63,-1.32
-0.04,-9.55,-1.47
-0.40,-9.76,-1.32
0.09,-9.61,-1.54
-0.17,-9.09,-1.45
-0.07,-9.62,-1.26
-0.07,-9.51,-1.20
0.24,-9.59,-1.58
0.05,-9.15,-1.36
-0.10,-9.73,-1.58
-0.14,-9.38,-1.48
-0.04,-9.62,-1.53
-0.07,-9.64,-1.66
-0.32,-9.30,-1.61
-0.14,-9.54,-1.76
-0.20,-9.48,-1.84
-0.68,-9.53,-1.79
-0.41,-9.53,-1.75
-0.51,-9.55,-1.92
-0.62,-9.52,-2.02
-0.62,-9.18,-1.89
-0.47,-9.53,-1.90
-0.64,-9.42,-2.14
-0.51,-9.10,-2.16
-0.65,-9.45,-2.23
-0.49,-9.28,-2.19
-0.54,-9.47,-2.29
-0.57,-9.43,-2.13
-0.48,-9.31,-2.30
-0.42,-9.26,-2.35
-0.62,-9.09,-2.15
-0.49,-9.10,-2.26
-0.63,-9.38,-2.18
-0.45,-9.53,-2.36
-0.51,-9.17,-2.28
-0.55,-9.44,-2.28
-0.56,-9.35,-2.27
-0.57,-9.53,-2.28
-0.42,-9.17,-2.34
-0.45,-9.38,-2.34
-0.45,-9.30,-2.21
-0.59,-9.08,-2.15
-0.57,-9.24,-2.31
-0.44,-9.33,-2.43
-0.43,-9.67,-2.43
-0.57,-9.43,-2.27
-0.56,-9.32,-2.40
-0.45,-9.29,-2.48
-0.42,-9.39,-2.39
-0.62,-9.26,-2.41
-0.48,-9.41,-2.43
-0.58,-9.61,-2.49
-0.35,-9.53,-2.43
-0.44,-9.33,-2.44
-0.48,-9.32,-2.48
-0.51,-9.23,-2.40
-0.35,-9.25,-2.49
-0.47,-9.39,-2.49
-0.21,-9.43,-2.58
-0.21,-9.41,-2.47
-0.32,-9.63,-2.42
-0.32,-9.20,-2.53
-0.31,-9.42,-2.57
-0.12,-9.35,-2.58
-0.38,-9.51,-2.54
-0.35,-9.25,-2.58
-0.43,-9.17,-2.49
-0.25,-9.43,-2.62
-0.50,-9.39,-2.46
-0.26,-9.24,-2.59
-0.24,-9.57,-2.55
-0.28,-9.18,-2.60
-0.20,-9.34,-2.72
-0.26,-9.31,-2.59
-0.42,-9.30,-2.60
-0.45,-9.38,-2.56
-0.20,-9.39,-2.65
-0.33,-9.38,-2.73
